#version,serial,flight,call,time,state,state_name,acceleration,pressure,altitude,height,speed,temperature,drogue_voltage,main_voltage,battery_voltage,accel_x,accel_y,accel_z,gyro_roll,gyro_pitch,gyro_yaw,mag_x,mag_y,mag_z,tilt,pyro,igniter_a,igniter_b,igniter_c,igniter_d,connected,locked,nsat,latitude,longitude,altitude,year,month,day,hour,minute,second,pad_dist,pad_range,pad_az,pad_el,pdop,hdop,vdop,sat01,sat02,sat03,sat04,sat05,sat06,sat07,sat08,sat09,sat10,sat11,sat12,sat13,sat14,sat15,sat16,sat17,sat18,sat19,sat20,sat21,sat22,sat23,sat24,sat25,sat26,sat27,sat28,sat29,sat30,sat31,sat32
6,16410,3,KR4MFM,-0.3,3,   boost,14.58,91573,845.38,-57.44,0.1,52.7,4.17,4.2,4.11,19.25,-0.17,-1.17,-13.17,1.42,-7.87,0.7,-0.07,0.22,1.27,4.2,0,0,0,0,1,1,15,31.0423909,-103.522765,895,2026,6,20,23,46,36,0,18,130,-89,0.9,0.5,0.8,42,41,38,0,0,0,0,13,0,40,0,37,0,0,0,0,0,0,0,0,0,0,40,0,39,40,0,29,0,0,27,26
6,16410,3,KR4MFM,-0.29,3,   boost,12.57,91545,847.91,-54.91,0.18,52.7,4.17,4.2,4.11,24.66,-0.78,-0.73,-13.9,0.26,-6.53,0.7,-0.07,0.22,1.27,4.2,0,0,0,0,1,1,15,31.0423909,-103.522765,895,2026,6,20,23,46,36,0,18,130,-89,0.9,0.5,0.8,42,41,38,0,0,0,0,13,0,40,0,37,0,0,0,0,0,0,0,0,0,0,40,0,39,40,0,29,0,0,27,26
6,16410,3,KR4MFM,-0.28,3,   boost,16.6,91545,847.91,-54.91,0.3,52.7,4.17,4.2,4.11,25.02,-0.88,-0.17,-14.14,-0.29,-3.72,0.7,-0.07,0.22,1.27,4.2,0,0,0,0,1,1,15,31.0423909,-103.522765,895,2026,6,20,23,46,36,0,18,130,-89,0.9,0.5,0.8,42,41,38,0,0,0,0,13,0,40,0,37,0,0,0,0,0,0,0,0,0,0,40,0,39,40,0,29,0,0,27,26
6,16410,3,KR4MFM,-0.27,3,   boost,15.59,91526,849.63,-53.2,0.46,52.7,4.17,4.2,4.11,31.48,0.05,0.4,-14.02,0.13,-1.58,0.7,-0.08,0.22,1.27,4.2,0,0,0,0,1,1,15,31.0423909,-103.522765,895,2026,6,20,23,46,36,0,18,130,-89,0.9,0.5,0.8,42,41,38,0,0,0,0,13,0,40,0,37,0,0,0,0,0,0,0,0,0,0,40,0,39,40,0,29,0,0,27,26
6,16410,3,KR4MFM,-0.26,3,   boost,18.61,91526,849.63,-53.2,0.65,52.7,4.17,4.2,4.11,31.71,1.15,1.11,-13.96,-0.05,-1.52,0.7,-0.07,0.22,1.27,4.2,0,0,0,0,1,1,15,31.0423909,-103.522765,895,2026,6,20,23,46,36,0,18,130,-89,0.9,0.5,0.8,42,41,38,0,0,0,0,13,0,40,0,37,0,0,0,0,0,0,0,0,0,0,40,0,39,40,0,29,0,0,27,26
6,16410,3,KR4MFM,-0.25,3,   boost,20.62,91508,851.25,-51.57,0.85,52.7,4.17,4.2,4.11,36.22,1.71,1.92,-13.96,0.01,-4.51,0.7,-0.07,0.22,1.27,4.2,0,0,0,0,1,1,15,31.0423909,-103.522765,895,2026,6,20,23,46,36,0,18,130,-89,0.9,0.5,0.8,42,41,38,0,0,0,0,13,0,40,0,37,0,0,0,0,0,0,0,0,0,0,40,0,39,40,0,29,0,0,27,26
6,16410,3,KR4MFM,-0.24,3,   boost,23.64,91508,851.25,-51.57,1.08,52.7,4.17,4.2,4.11,37.71,1.19,1.69,-13.35,-0.48,-6.16,0.71,-0.07,0.22,1.27,4.2,0,0,0,0,1,1,15,31.0423909,-103.522765,895,2026,6,20,23,46,36,0,18,130,-89,0.9,0.5,0.8,42,41,38,0,0,0,0,13,0,40,0,37,0,0,0,0,0,0,0,0,0,0,40,0,39,40,0,29,0,0,27,26
6,16410,3,KR4MFM,-0.23,3,   boost,29.17,91501,851.89,-50.94,1.33,52.7,4.17,4.2,4.11,33.9,0.24,1.69,-13.41,0.13,-6.34,0.71,-0.07,0.22,1.27,4.2,0,0,0,0,1,1,15,31.0423909,-103.522765,895,2026,6,20,23,46,36,0,18,130,-89,0.9,0.5,0.8,42,41,38,0,0,0,0,13,0,40,0,37,0,0,0,0,0,0,0,0,0,0,40,0,39,40,0,29,0,0,27,26
6,16410,3,KR4MFM,-0.22,3,   boost,26.65,91501,851.89,-50.94,1.61,52.7,4.17,4.2,4.11,34.92,-0.56,1.8,-12.62,-0.23,-5.31,0.71,-0.07,0.22,1.27,4.2,0,0,0,0,1,1,15,31.0423909,-103.522765,895,2026,6,20,23,46,36,0,18,130,-89,0.9,0.5,0.8,42,41,38,0,0,0,0,13,0,40,0,37,0,0,0,0,0,0,0,0,0,0,40,0,39,40,0,29,0,0,27,26
6,16410,3,KR4MFM,-0.21,3,   boost,31.18,91478,853.97,-48.86,1.91,52.7,4.17,4.2,4.11,27.17,-0.68,1.51,-12.13,0.87,-3.05,0.71,-0.07,0.22,1.27,4.2,0,0,0,0,1,1,15,31.0423909,-103.522765,895,2026,6,20,23,46,36,0,18,130,-89,0.9,0.5,0.8,42,41,38,0,0,0,0,13,0,40,0,37,0,0,0,0,0,0,0,0,0,0,40,0,39,40,0,29,0,0,27,26
6,16410,3,KR4MFM,-0.2,3,   boost,38.72,91478,853.97,-48.86,2.23,52.7,4.17,4.2,4.11,22.9,-0.06,0.05,-11.21,3.25,-6.47,0.7,-0.07,0.22,1.27,4.2,0,0,0,0,1,1,15,31.0423909,-103.522765,895,2026,6,20,23,46,36,0,18,130,-89,0.9,0.5,0.8,42,41,38,0,0,0,0,13,0,40,0,37,0,0,0,0,0,0,0,0,0,0,40,0,39,40,0,29,0,0,27,26
6,16410,3,KR4MFM,-0.19,3,   boost,36.21,91471,854.6,-48.22,2.56,52.7,4.17,4.2,4.11,14.49,0.4,-1.06,-11.76,2.58,-5.25,0.7,-0.07,0.22,1.27,4.2,0,0,0,0,1,1,15,31.0423909,-103.522765,895,2026,6,20,23,46,36,0,18,130,-89,0.9,0.5,0.8,42,41,38,0,0,0,0,13,0,40,0,37,0,0,0,0,0,0,0,0,0,0,40,0,39,40,0,29,0,0,27,26
6,16410,3,KR4MFM,-0.18,3,   boost,29.67,91471,854.6,-48.22,2.89,52.7,4.17,4.2,4.11,12.52,0.58,-1.42,-9.2,5.99,-9.21,0.71,-0.07,0.21,1.27,4.2,0,0,0,0,1,1,15,31.0423909,-103.522765,895,2026,6,20,23,46,36,0,18,130,-89,0.9,0.5,0.8,42,41,38,0,0,0,0,13,0,40,0,37,0,0,0,0,0,0,0,0,0,0,40,0,39,40,0,29,0,0,27,26
6,16410,3,KR4MFM,-0.17,3,   boost,29.67,91439,857.49,-45.33,3.2,52.7,4.17,4.2,4.11,14.55,0.08,-1.88,-13.29,0.32,-7.02,0.71,-0.07,0.22,1.27,4.2,0,0,0,0,1,1,15,31.0423909,-103.522765,895,2026,6,20,23,46,36,0,18,130,-89,0.9,0.5,0.8,42,41,38,0,0,0,0,13,0,40,0,37,0,0,0,0,0,0,0,0,0,0,40,0,39,40,0,29,0,0,27,26
6,16410,3,KR4MFM,-0.16,3,   boost,33.19,91439,857.49,-45.33,3.5,52.7,4.17,4.2,4.11,15.85,-0.55,-1.73,-13.23,-0.84,-7.08,0.71,-0.07,0.22,1.27,4.2,0,0,0,0,1,1,15,31.0423909,-103.522765,895,2026,6,20,23,46,36,0,18,130,-89,0.9,0.5,0.8,42,41,38,0,0,0,0,13,0,40,0,37,0,0,0,0,0,0,0,0,0,0,40,0,39,40,0,29,0,0,27,26
6,16410,3,KR4MFM,-0.15,3,   boost,29.17,91422,859.03,-43.79,3.78,52.7,4.17,4.2,4.11,15.79,-0.92,-1.63,-12.62,-0.17,-5.43,0.71,-0.07,0.22,1.27,4.2,0,0,0,0,1,1,15,31.0423909,-103.522765,895,2026,6,20,23,46,36,0,18,130,-89,0.9,0.5,0.8,42,41,38,0,0,0,0,13,0,40,0,37,0,0,0,0,0,0,0,0,0,0,40,0,39,40,0,29,0,0,27,26
6,16410,3,KR4MFM,-0.14,3,   boost,23.64,91422,859.03,-43.79,4.02,52.7,4.17,4.2,4.11,22.57,-0.58,-1.31,-11.76,-0.54,-4.33,0.7,-0.07,0.22,1.27,4.2,0,0,0,0,1,1,15,31.0423909,-103.522765,895,2026,6,20,23,46,36,0,18,130,-89,0.9,0.5,0.8,42,41,38,0,0,0,0,13,0,40,0,37,0,0,0,0,0,0,0,0,0,0,40,0,39,40,0,29,0,0,27,26
6,16410,3,KR4MFM,-0.13,3,   boost,12.57,91400,861.02,-41.8,4.23,52.7,4.17,4.2,4.11,23.5,0.13,-0.34,-11.15,0.93,-3.9,0.7,-0.07,0.22,1.27,4.2,0,0,0,0,1,1,15,31.0423909,-103.522765,895,2026,6,20,23,46,36,0,18,130,-89,0.9,0.5,0.8,42,41,38,0,0,0,0,13,0,40,0,37,0,0,0,0,0,0,0,0,0,0,40,0,39,40,0,29,0,0,27,26
6,16410,3,KR4MFM,-0.12,3,   boost,16.09,91400,861.02,-41.8,4.42,52.7,4.17,4.2,4.11,32.04,0.98,0.85,-10.36,1.97,-5.31,0.71,-0.07,0.22,1.27,4.2,0,0,0,0,1,1,15,31.0423909,-103.522765,895,2026,6,20,23,46,36,0,18,130,-89,0.9,0.5,0.8,42,41,38,0,0,0,0,13,0,40,0,37,0,0,0,0,0,0,0,0,0,0,40,0,39,40,0,29,0,0,27,26
6,16410,3,KR4MFM,-0.11,3,   boost,14.08,91389,862.02,-40.81,4.6,52.7,4.17,4.2,4.11,36.22,1.14,1.62,-9.63,4.04,-7.57,0.71,-0.07,0.21,1.27,4.2,0,0,0,0,1,1,15,31.0423909,-103.522765,895,2026,6,20,23,46,36,0,18,130,-89,0.9,0.5,0.8,42,41,38,0,0,0,0,13,0,40,0,37,0,0,0,0,0,0,0,0,0,0,40,0,39,40,0,29,0,0,27,26
6,16410,3,KR4MFM,-0.1,3,   boost,17.1,91389,862.02,-40.81,4.79,52.7,4.17,4.2,4.11,37.46,0.93,2.14,-8.1,4.1,-10.62,0.71,-0.07,0.22,1.27,4.2,0,0,0,0,1,1,15,31.0423909,-103.522765,895,2026,6,20,23,46,36,0,18,130,-89,0.9,0.5,0.8,42,41,38,0,0,0,0,13,0,40,0,37,0,0,0,0,0,0,0,0,0,0,40,0,39,40,0,29,0,0,27,26
6,16410,3,KR4MFM,-0.09,3,   boost,22.63,91386,862.29,-40.53,5,52.7,4.17,4.2,4.11,35.52,0.18,1.94,-7.06,5.51,-12.14,0.71,-0.07,0.21,1.27,4.2,0,0,0,0,1,1,15,31.0423909,-103.522765,895,2026,6,20,23,46,36,0,18,130,-89,0.9,0.5,0.8,42,41,38,0,0,0,0,13,0,40,0,37,0,0,0,0,0,0,0,0,0,0,40,0,39,40,0,29,0,0,27,26
6,16410,3,KR4MFM,-0.08,3,   boost,26.65,91386,862.29,-40.53,5.24,52.7,4.17,4.2,4.11,29.74,-0.27,1.51,-6.58,5.69,-11.9,0.71,-0.07,0.22,1.27,4.2,0,0,0,0,1,1,15,31.0423909,-103.522765,895,2026,6,20,23,46,36,0,18,130,-89,0.9,0.5,0.8,42,41,38,0,0,0,0,13,0,40,0,37,0,0,0,0,0,0,0,0,0,0,40,0,39,40,0,29,0,0,27,26
6,16410,3,KR4MFM,-0.07,3,   boost,33.19,91361,864.55,-38.27,5.5,52.7,4.17,4.2,4.11,22.9,-0.31,0.54,-6.82,6.18,-11.35,0.71,-0.07,0.21,1.27,4.2,0,0,0,0,1,1,15,31.0423909,-103.522765,895,2026,6,20,23,46,36,0,18,130,-89,0.9,0.5,0.8,42,41,38,0,0,0,0,13,0,40,0,37,0,0,0,0,0,0,0,0,0,0,40,0,39,40,0,29,0,0,27,26
6,16410,3,KR4MFM,-0.06,3,   boost,29.17,91361,864.55,-38.27,5.76,52.7,4.17,4.2,4.11,16.97,0.01,-0.47,-7.12,5.93,-10.8,0.71,-0.07,0.21,1.27,4.2,0,0,0,0,1,1,15,31.0423909,-103.522765,895,2026,6,20,23,46,36,0,18,130,-89,0.9,0.5,0.8,42,41,38,0,0,0,0,13,0,40,0,37,0,0,0,0,0,0,0,0,0,0,40,0,39,40,0,29,0,0,27,26
6,16410,3,KR4MFM,-0.05,3,   boost,27.16,91340,866.45,-36.37,6.02,52.7,4.17,4.2,4.11,15.35,0.22,-1.42,-7.12,5.57,-10.62,0.71,-0.07,0.21,1.27,4.2,0,0,0,0,1,1,15,31.0423925,-103.5227672,913,2026,6,20,23,46,37,0,0,0,0,0.9,0.4,0.7,42,41,36,0,0,0,0,12,0,38,0,38,0,0,0,0,0,0,0,0,0,0,37,0,38,40,0,29,0,0,33,37
6,16410,3,KR4MFM,-0.04,3,   boost,22.13,91340,866.45,-36.37,6.26,52.7,4.17,4.2,4.11,16.6,0.29,-1.54,-7.61,4.04,-10.8,0.71,-0.07,0.21,1.27,4.2,0,0,0,0,1,1,15,31.0423925,-103.5227672,913,2026,6,20,23,46,37,0,0,0,0,0.9,0.4,0.7,42,41,36,0,0,0,0,12,0,38,0,38,0,0,0,0,0,0,0,0,0,0,37,0,38,40,0,29,0,0,33,37
6,16410,3,KR4MFM,-0.03,3,   boost,18.1,91319,868.36,-34.47,6.49,52.7,4.17,4.2,4.11,19.67,-0.04,-1.66,-7.92,1.78,-10.8,0.71,-0.07,0.21,1.27,4.2,0,0,0,0,1,1,15,31.0423925,-103.5227672,913,2026,6,20,23,46,37,0,0,0,0,0.9,0.4,0.7,42,41,36,0,0,0,0,12,0,38,0,38,0,0,0,0,0,0,0,0,0,0,37,0,38,40,0,29,0,0,33,37
6,16410,3,KR4MFM,-0.02,3,   boost,17.6,91319,868.36,-34.47,6.69,52.7,4.17,4.2,4.11,27.19,-0.29,-0.8,-8.22,0.62,-8.85,0.71,-0.07,0.21,1.27,4.2,0,0,0,0,1,1,15,31.0423925,-103.5227672,913,2026,6,20,23,46,37,0,0,0,0,0.9,0.4,0.7,42,41,36,0,0,0,0,12,0,38,0,38,0,0,0,0,0,0,0,0,0,0,37,0,38,40,0,29,0,0,33,37
6,16410,3,KR4MFM,-0.01,3,   boost,19.11,91317,868.54,-34.29,6.88,52.7,4.17,4.2,4.11,31.88,-0.27,0.56,-8.53,0.81,-6.89,0.71,-0.07,0.21,1.27,4.2,0,0,0,0,1,1,15,31.0423925,-103.5227672,913,2026,6,20,23,46,37,0,0,0,0,0.9,0.4,0.7,42,41,36,0,0,0,0,12,0,38,0,38,0,0,0,0,0,0,0,0,0,0,37,0,38,40,0,29,0,0,33,37
6,16410,3,KR4MFM,0,3,   boost,18.61,91317,868.54,-34.29,7.06,52.7,4.17,4.2,4.11,33.28,0.19,1.52,-8.1,0.75,-6.16,0.71,-0.07,0.21,1.27,4.2,0,0,0,0,1,1,15,31.0423925,-103.5227672,913,2026,6,20,23,46,37,0,0,0,0,0.9,0.4,0.7,42,41,36,0,0,0,0,12,0,38,0,38,0,0,0,0,0,0,0,0,0,0,37,0,38,40,0,29,0,0,33,37
6,16410,3,KR4MFM,0,3,   boost,18.61,91317,868.54,-34.29,7.06,52.7,4.17,4.2,4.11,33.28,0.19,1.52,-8.1,0.75,-6.16,0.71,-0.07,0.21,1.27,4.2,0,0,0,0,1,1,15,31.0423925,-103.5227672,913,2026,6,20,23,46,37,0,0,0,0,0.9,0.4,0.7,42,41,36,0,0,0,0,12,0,38,0,38,0,0,0,0,0,0,0,0,0,0,37,0,38,40,0,29,0,0,33,37
6,16410,3,KR4MFM,0,3,   boost,18.61,91317,868.54,-34.29,7.06,52.7,4.17,4.2,4.11,33.28,0.19,1.52,-8.1,0.75,-6.16,0.71,-0.07,0.21,1.27,4.2,0,0,0,0,1,1,15,31.0423925,-103.5227672,913,2026,6,20,23,46,37,0,0,0,0,0.9,0.4,0.7,42,41,36,0,0,0,0,12,0,38,0,38,0,0,0,0,0,0,0,0,0,0,37,0,38,40,0,29,0,0,33,37
6,16410,3,KR4MFM,0,3,   boost,18.61,91317,868.54,-34.29,7.06,52.7,4.17,4.2,4.11,33.28,0.19,1.52,-8.1,0.75,-6.16,0.71,-0.07,0.21,1.27,4.2,0,0,0,0,1,1,15,31.0423925,-103.5227672,913,2026,6,20,23,46,37,0,0,0,0,0.9,0.4,0.7,42,41,36,0,0,0,0,12,0,38,0,38,0,0,0,0,0,0,0,0,0,0,37,0,38,40,0,29,0,0,33,37
6,16410,3,KR4MFM,0,3,   boost,18.61,91317,868.54,-34.29,7.06,52.7,4.17,4.2,4.11,33.28,0.19,1.52,-8.1,0.75,-6.16,0.71,-0.07,0.21,1.27,4.2,0,0,0,0,1,1,15,31.0423925,-103.5227672,913,2026,6,20,23,46,37,0,0,0,0,0.9,0.4,0.7,42,41,36,0,0,0,0,12,0,38,0,38,0,0,0,0,0,0,0,0,0,0,37,0,38,40,0,29,0,0,33,37
6,16410,3,KR4MFM,0,3,   boost,18.61,91317,868.54,-34.29,7.06,52.7,4.17,4.2,4.11,33.28,0.19,1.52,-8.1,0.75,-6.16,0.71,-0.07,0.21,1.23,4.2,0,0,0,0,1,1,15,31.0423925,-103.5227672,913,2026,6,20,23,46,37,0,0,0,0,0.9,0.4,0.7,42,41,36,0,0,0,0,12,0,38,0,38,0,0,0,0,0,0,0,0,0,0,37,0,38,40,0,29,0,0,33,37
6,16410,3,KR4MFM,0,3,   boost,18.61,91317,868.54,-34.29,7.06,52.7,4.17,4.2,4.11,33.28,0.19,1.52,-8.1,0.75,-6.16,0.71,-0.07,0.21,1.2,4.2,0,0,0,0,1,1,15,31.0423925,-103.5227672,913,2026,6,20,23,46,37,0,0,0,0,0.9,0.4,0.7,42,41,36,0,0,0,0,12,0,38,0,38,0,0,0,0,0,0,0,0,0,0,37,0,38,40,0,29,0,0,33,37
6,16410,3,KR4MFM,0,3,   boost,18.61,91317,868.54,-34.29,7.06,52.7,4.17,4.2,4.11,33.28,0.19,1.52,-8.1,0.75,-6.16,0.71,-0.07,0.21,1.19,4.2,0,0,0,0,1,1,15,31.0423925,-103.5227672,913,2026,6,20,23,46,37,0,0,0,0,0.9,0.4,0.7,42,41,36,0,0,0,0,12,0,38,0,38,0,0,0,0,0,0,0,0,0,0,37,0,38,40,0,29,0,0,33,37
6,16410,3,KR4MFM,0,3,   boost,18.61,91317,868.54,-34.29,7.06,52.7,4.17,4.2,4.11,33.28,0.19,1.52,-8.1,0.75,-6.16,0.71,-0.07,0.21,1.18,4.2,0,0,0,0,1,1,15,31.0423925,-103.5227672,913,2026,6,20,23,46,37,0,0,0,0,0.9,0.4,0.7,42,41,36,0,0,0,0,12,0,38,0,38,0,0,0,0,0,0,0,0,0,0,37,0,38,40,0,29,0,0,33,37
6,16410,3,KR4MFM,0,3,   boost,18.61,91317,868.54,-34.29,7.06,52.7,4.17,4.2,4.11,33.28,0.19,1.52,-8.1,0.75,-6.16,0.71,-0.07,0.21,1.16,4.2,0,0,0,0,1,1,15,31.0423925,-103.5227672,913,2026,6,20,23,46,37,0,0,0,0,0.9,0.4,0.7,42,41,36,0,0,0,0,12,0,38,0,38,0,0,0,0,0,0,0,0,0,0,37,0,38,40,0,29,0,0,33,37
6,16410,3,KR4MFM,0,3,   boost,18.61,91317,868.54,-34.29,7.06,52.7,4.17,4.2,4.11,33.28,0.19,1.52,-8.1,0.75,-6.16,0.71,-0.07,0.21,1.12,4.2,0,0,0,0,1,1,15,31.0423925,-103.5227672,913,2026,6,20,23,46,37,0,0,0,0,0.9,0.4,0.7,42,41,36,0,0,0,0,12,0,38,0,38,0,0,0,0,0,0,0,0,0,0,37,0,38,40,0,29,0,0,33,37
6,16410,3,KR4MFM,0,3,   boost,18.61,91317,868.54,-34.29,7.06,52.7,4.17,4.2,4.11,33.28,0.19,1.52,-8.1,0.75,-6.16,0.71,-0.07,0.21,1.09,4.2,0,0,0,0,1,1,15,31.0423925,-103.5227672,913,2026,6,20,23,46,37,0,0,0,0,0.9,0.4,0.7,42,41,36,0,0,0,0,12,0,38,0,38,0,0,0,0,0,0,0,0,0,0,37,0,38,40,0,29,0,0,33,37
6,16410,3,KR4MFM,0,3,   boost,18.61,91317,868.54,-34.29,7.06,52.7,4.17,4.2,4.11,33.28,0.19,1.52,-8.1,0.75,-6.16,0.71,-0.07,0.21,1.06,4.2,0,0,0,0,1,1,15,31.0423925,-103.5227672,913,2026,6,20,23,46,37,0,0,0,0,0.9,0.4,0.7,42,41,36,0,0,0,0,12,0,38,0,38,0,0,0,0,0,0,0,0,0,0,37,0,38,40,0,29,0,0,33,37
6,16410,3,KR4MFM,0,3,   boost,18.61,91317,868.54,-34.29,7.06,52.7,4.17,4.2,4.11,33.28,0.19,1.52,-8.1,0.75,-6.16,0.71,-0.07,0.21,1.04,4.2,0,0,0,0,1,1,15,31.0423925,-103.5227672,913,2026,6,20,23,46,37,0,0,0,0,0.9,0.4,0.7,42,41,36,0,0,0,0,12,0,38,0,38,0,0,0,0,0,0,0,0,0,0,37,0,38,40,0,29,0,0,33,37
6,16410,3,KR4MFM,0,3,   boost,18.61,91317,868.54,-34.29,7.06,52.7,4.17,4.2,4.11,33.28,0.19,1.52,-8.1,0.75,-6.16,0.71,-0.07,0.21,0.98,4.2,0,0,0,0,1,1,15,31.0423925,-103.5227672,913,2026,6,20,23,46,37,0,0,0,0,0.9,0.4,0.7,42,41,36,0,0,0,0,12,0,38,0,38,0,0,0,0,0,0,0,0,0,0,37,0,38,40,0,29,0,0,33,37
6,16410,3,KR4MFM,0,3,   boost,18.61,91317,868.54,-34.29,7.06,52.7,4.17,4.2,4.11,33.28,0.19,1.52,-8.1,0.75,-6.16,0.71,-0.07,0.21,0.93,4.2,0,0,0,0,1,1,15,31.0423925,-103.5227672,913,2026,6,20,23,46,37,0,0,0,0,0.9,0.4,0.7,42,41,36,0,0,0,0,12,0,38,0,38,0,0,0,0,0,0,0,0,0,0,37,0,38,40,0,29,0,0,33,37
6,16410,3,KR4MFM,0,3,   boost,18.61,91317,868.54,-34.29,7.06,52.7,4.17,4.2,4.11,33.28,0.19,1.52,-8.1,0.75,-6.16,0.71,-0.07,0.21,0.84,4.2,0,0,0,0,1,1,15,31.0423925,-103.5227672,913,2026,6,20,23,46,37,0,0,0,0,0.9,0.4,0.7,42,41,36,0,0,0,0,12,0,38,0,38,0,0,0,0,0,0,0,0,0,0,37,0,38,40,0,29,0,0,33,37
6,16410,3,KR4MFM,0,3,   boost,18.61,91317,868.54,-34.29,7.06,52.7,4.17,4.2,4.11,33.28,0.19,1.52,-8.1,0.75,-6.16,0.71,-0.07,0.21,0.81,4.2,0,0,0,0,1,1,15,31.0423925,-103.5227672,913,2026,6,20,23,46,37,0,0,0,0,0.9,0.4,0.7,42,41,36,0,0,0,0,12,0,38,0,38,0,0,0,0,0,0,0,0,0,0,37,0,38,40,0,29,0,0,33,37
6,16410,3,KR4MFM,0,3,   boost,18.61,91317,868.54,-34.29,7.06,52.7,4.17,4.2,4.11,33.28,0.19,1.52,-8.1,0.75,-6.16,0.71,-0.07,0.21,0.8,4.2,0,0,0,0,1,1,15,31.0423925,-103.5227672,913,2026,6,20,23,46,37,0,0,0,0,0.9,0.4,0.7,42,41,36,0,0,0,0,12,0,38,0,38,0,0,0,0,0,0,0,0,0,0,37,0,38,40,0,29,0,0,33,37
6,16410,3,KR4MFM,0,3,   boost,18.61,91317,868.54,-34.29,7.06,52.7,4.17,4.2,4.11,33.28,0.19,1.52,-8.1,0.75,-6.16,0.71,-0.07,0.21,0.8,4.2,0,0,0,0,1,1,15,31.0423925,-103.5227672,913,2026,6,20,23,46,37,0,0,0,0,0.9,0.4,0.7,42,41,36,0,0,0,0,12,0,38,0,38,0,0,0,0,0,0,0,0,0,0,37,0,38,40,0,29,0,0,33,37
6,16410,3,KR4MFM,0,3,   boost,18.61,91317,868.54,-34.29,7.06,52.7,4.17,4.2,4.11,33.28,0.19,1.52,-8.1,0.75,-6.16,0.71,-0.07,0.21,0.8,4.2,0,0,0,0,1,1,15,31.0423925,-103.5227672,913,2026,6,20,23,46,37,0,0,0,0,0.9,0.4,0.7,42,41,36,0,0,0,0,12,0,38,0,38,0,0,0,0,0,0,0,0,0,0,37,0,38,40,0,29,0,0,33,37
6,16410,3,KR4MFM,0,3,   boost,18.61,91317,868.54,-34.29,7.06,52.7,4.17,4.2,4.11,33.28,0.19,1.52,-8.1,0.75,-6.16,0.71,-0.07,0.21,0.78,4.2,0,0,0,0,1,1,15,31.0423925,-103.5227672,913,2026,6,20,23,46,37,0,0,0,0,0.9,0.4,0.7,42,41,36,0,0,0,0,12,0,38,0,38,0,0,0,0,0,0,0,0,0,0,37,0,38,40,0,29,0,0,33,37
6,16410,3,KR4MFM,0,3,   boost,18.61,91317,868.54,-34.29,7.06,52.7,4.17,4.2,4.11,33.28,0.19,1.52,-8.1,0.75,-6.16,0.71,-0.07,0.21,0.76,4.2,0,0,0,0,1,1,15,31.0423925,-103.5227672,913,2026,6,20,23,46,37,0,0,0,0,0.9,0.4,0.7,42,41,36,0,0,0,0,12,0,38,0,38,0,0,0,0,0,0,0,0,0,0,37,0,38,40,0,29,0,0,33,37
6,16410,3,KR4MFM,0,3,   boost,18.61,91317,868.54,-34.29,7.06,52.7,4.17,4.2,4.11,33.28,0.19,1.52,-8.1,0.75,-6.16,0.71,-0.07,0.21,0.73,4.2,0,0,0,0,1,1,15,31.0423925,-103.5227672,913,2026,6,20,23,46,37,0,0,0,0,0.9,0.4,0.7,42,41,36,0,0,0,0,12,0,38,0,38,0,0,0,0,0,0,0,0,0,0,37,0,38,40,0,29,0,0,33,37
6,16410,3,KR4MFM,0,3,   boost,18.61,91317,868.54,-34.29,7.06,52.7,4.17,4.2,4.11,33.28,0.19,1.52,-8.1,0.75,-6.16,0.71,-0.07,0.21,0.71,4.2,0,0,0,0,1,1,15,31.0423925,-103.5227672,913,2026,6,20,23,46,37,0,0,0,0,0.9,0.4,0.7,42,41,36,0,0,0,0,12,0,38,0,38,0,0,0,0,0,0,0,0,0,0,37,0,38,40,0,29,0,0,33,37
6,16410,3,KR4MFM,0,3,   boost,18.61,91317,868.54,-34.29,7.06,52.7,4.17,4.2,4.11,33.28,0.19,1.52,-8.1,0.75,-6.16,0.71,-0.07,0.21,0.7,4.2,0,0,0,0,1,1,15,31.0423925,-103.5227672,913,2026,6,20,23,46,37,0,0,0,0,0.9,0.4,0.7,42,41,36,0,0,0,0,12,0,38,0,38,0,0,0,0,0,0,0,0,0,0,37,0,38,40,0,29,0,0,33,37
6,16410,3,KR4MFM,0,3,   boost,18.61,91317,868.54,-34.29,7.06,52.7,4.17,4.2,4.11,33.28,0.19,1.52,-8.1,0.75,-6.16,0.71,-0.07,0.21,0.72,4.2,0,0,0,0,1,1,15,31.0423925,-103.5227672,913,2026,6,20,23,46,37,0,0,0,0,0.9,0.4,0.7,42,41,36,0,0,0,0,12,0,38,0,38,0,0,0,0,0,0,0,0,0,0,37,0,38,40,0,29,0,0,33,37
6,16410,3,KR4MFM,0,3,   boost,18.61,91317,868.54,-34.29,7.06,52.7,4.17,4.2,4.11,33.28,0.19,1.52,-8.1,0.75,-6.16,0.71,-0.07,0.21,0.75,4.2,0,0,0,0,1,1,15,31.0423925,-103.5227672,913,2026,6,20,23,46,37,0,0,0,0,0.9,0.4,0.7,42,41,36,0,0,0,0,12,0,38,0,38,0,0,0,0,0,0,0,0,0,0,37,0,38,40,0,29,0,0,33,37
6,16410,3,KR4MFM,0,3,   boost,18.61,91317,868.54,-34.29,7.06,52.7,4.17,4.2,4.11,33.28,0.19,1.52,-8.1,0.75,-6.16,0.71,-0.07,0.21,0.79,4.2,0,0,0,0,1,1,15,31.0423925,-103.5227672,913,2026,6,20,23,46,37,0,0,0,0,0.9,0.4,0.7,42,41,36,0,0,0,0,12,0,38,0,38,0,0,0,0,0,0,0,0,0,0,37,0,38,40,0,29,0,0,33,37
6,16410,3,KR4MFM,0,3,   boost,18.61,91317,868.54,-34.29,7.06,52.7,4.17,4.2,4.11,33.28,0.19,1.52,-8.1,0.75,-6.16,0.71,-0.07,0.21,0.79,4.2,0,0,0,0,1,1,15,31.0423925,-103.5227672,913,2026,6,20,23,46,37,0,0,0,0,0.9,0.4,0.7,42,41,36,0,0,0,0,12,0,38,0,38,0,0,0,0,0,0,0,0,0,0,37,0,38,40,0,29,0,0,33,37
6,16410,3,KR4MFM,0,3,   boost,18.61,91317,868.54,-34.29,7.06,52.7,4.17,4.2,4.11,33.28,0.19,1.52,-8.1,0.75,-6.16,0.71,-0.07,0.21,0.79,4.2,0,0,0,0,1,1,15,31.0423925,-103.5227672,913,2026,6,20,23,46,37,0,0,0,0,0.9,0.4,0.7,42,41,36,0,0,0,0,12,0,38,0,38,0,0,0,0,0,0,0,0,0,0,37,0,38,40,0,29,0,0,33,37
6,16410,3,KR4MFM,0,3,   boost,18.61,91317,868.54,-34.29,7.06,52.7,4.17,4.2,4.11,33.28,0.19,1.52,-8.1,0.75,-6.16,0.71,-0.07,0.21,0.86,4.2,0,0,0,0,1,1,15,31.0423925,-103.5227672,913,2026,6,20,23,46,37,0,0,0,0,0.9,0.4,0.7,42,41,36,0,0,0,0,12,0,38,0,38,0,0,0,0,0,0,0,0,0,0,37,0,38,40,0,29,0,0,33,37
6,16410,3,KR4MFM,0,3,   boost,18.61,91317,868.54,-34.29,7.06,52.7,4.17,4.2,4.11,33.28,0.19,1.52,-8.1,0.75,-6.16,0.71,-0.07,0.21,0.94,4.2,0,0,0,0,1,1,15,31.0423925,-103.5227672,913,2026,6,20,23,46,37,0,0,0,0,0.9,0.4,0.7,42,41,36,0,0,0,0,12,0,38,0,38,0,0,0,0,0,0,0,0,0,0,37,0,38,40,0,29,0,0,33,37
6,16410,3,KR4MFM,0,3,   boost,18.61,91317,868.54,-34.29,7.06,52.7,4.17,4.2,4.11,33.28,0.19,1.52,-8.1,0.75,-6.16,0.71,-0.07,0.21,1.03,4.2,0,0,0,0,1,1,15,31.0423925,-103.5227672,913,2026,6,20,23,46,37,0,0,0,0,0.9,0.4,0.7,42,41,36,0,0,0,0,12,0,38,0,38,0,0,0,0,0,0,0,0,0,0,37,0,38,40,0,29,0,0,33,37
6,16410,3,KR4MFM,0,3,   boost,18.61,91317,868.54,-34.29,7.06,52.7,4.17,4.2,4.11,33.28,0.19,1.52,-8.1,0.75,-6.16,0.71,-0.07,0.21,1.11,4.2,0,0,0,0,1,1,15,31.0423925,-103.5227672,913,2026,6,20,23,46,37,0,0,0,0,0.9,0.4,0.7,42,41,36,0,0,0,0,12,0,38,0,38,0,0,0,0,0,0,0,0,0,0,37,0,38,40,0,29,0,0,33,37
6,16410,3,KR4MFM,0,3,   boost,18.61,91317,868.54,-34.29,7.06,52.7,4.17,4.2,4.11,33.28,0.19,1.52,-8.1,0.75,-6.16,0.71,-0.07,0.21,1.18,4.2,0,0,0,0,1,1,15,31.0423925,-103.5227672,913,2026,6,20,23,46,37,0,0,0,0,0.9,0.4,0.7,42,41,36,0,0,0,0,12,0,38,0,38,0,0,0,0,0,0,0,0,0,0,37,0,38,40,0,29,0,0,33,37
6,16410,3,KR4MFM,0,3,   boost,18.61,91317,868.54,-34.29,7.06,52.7,4.17,4.2,4.11,33.28,0.19,1.52,-8.1,0.75,-6.16,0.71,-0.07,0.21,1.24,4.2,0,0,0,0,1,1,15,31.0423925,-103.5227672,913,2026,6,20,23,46,37,0,0,0,0,0.9,0.4,0.7,42,41,36,0,0,0,0,12,0,38,0,38,0,0,0,0,0,0,0,0,0,0,37,0,38,40,0,29,0,0,33,37
6,16410,3,KR4MFM,0.01,3,   boost,14.08,91285,871.43,-31.39,7.25,52.7,4.17,4.2,4.11,39.5,0.83,2.14,-7.19,1.05,-6.34,0.71,-0.07,0.21,1.29,4.2,0,0,0,0,1,1,15,31.0423925,-103.5227672,913,2026,6,20,23,46,37,0,0,0,0,0.9,0.4,0.7,42,41,36,0,0,0,0,12,0,38,0,38,0,0,0,0,0,0,0,0,0,0,37,0,38,40,0,29,0,0,33,37
6,16410,3,KR4MFM,0.01,3,   boost,14.08,91285,871.43,-31.39,7.25,52.7,4.17,4.2,4.11,39.5,0.83,2.14,-7.19,1.05,-6.34,0.71,-0.07,0.21,1.29,4.2,0,0,0,0,1,1,15,31.0423925,-103.5227672,913,2026,6,20,23,46,37,0,0,0,0,0.9,0.4,0.7,42,41,36,0,0,0,0,12,0,38,0,38,0,0,0,0,0,0,0,0,0,0,37,0,38,40,0,29,0,0,33,37
6,16410,3,KR4MFM,0.02,3,   boost,20.62,91285,871.43,-31.39,7.46,52.7,4.19,4.2,4.11,12.16,0.2,-2.13,-6.27,3.61,-8.54,0.71,-0.07,0.21,1.37,4.19,0,0,0,0,1,1,15,31.0423925,-103.5227672,913,2026,6,20,23,46,37,0,0,0,0,0.9,0.4,0.7,42,41,36,0,0,0,0,12,0,38,0,38,0,0,0,0,0,0,0,0,0,0,37,0,38,40,0,29,0,0,33,37
6,16410,3,KR4MFM,0.02,3,   boost,20.62,91285,871.43,-31.39,7.46,52.7,4.19,4.2,4.11,12.16,0.2,-2.13,-6.27,3.61,-8.54,0.71,-0.07,0.21,1.37,4.19,0,0,0,0,1,1,15,31.0423925,-103.5227672,913,2026,6,20,23,46,37,0,0,0,0,0.9,0.4,0.7,42,41,36,0,0,0,0,12,0,38,0,38,0,0,0,0,0,0,0,0,0,0,37,0,38,40,0,29,0,0,33,37
6,16410,3,KR4MFM,0.03,3,   boost,24.14,91285,871.43,-31.39,7.68,52.7,4.19,4.2,4.11,18.74,0.14,-1.79,-5.35,3.8,-11.04,0.71,-0.07,0.21,1.47,4.19,0,0,0,0,1,1,15,31.0423925,-103.5227672,913,2026,6,20,23,46,37,0,0,0,0,0.9,0.4,0.7,42,41,36,0,0,0,0,12,0,38,0,38,0,0,0,0,0,0,0,0,0,0,37,0,38,40,0,29,0,0,33,37
6,16410,3,KR4MFM,0.04,3,   boost,28.67,91285,871.43,-31.39,7.92,52.7,4.19,4.2,4.11,26.34,-0.19,-0.7,-4.74,5.93,-13,0.71,-0.07,0.22,1.59,4.19,0,0,0,0,1,1,15,31.0423925,-103.5227672,913,2026,6,20,23,46,37,0,0,0,0,0.9,0.4,0.7,42,41,36,0,0,0,0,12,0,38,0,38,0,0,0,0,0,0,0,0,0,0,37,0,38,40,0,29,0,0,33,37
6,16410,3,KR4MFM,0.05,3,   boost,30.68,91273,872.52,-30.3,8.17,52.7,4.19,4.2,4.11,30.33,0,0.66,-3.83,5.57,-14.46,0.71,-0.07,0.22,1.73,4.19,0,0,0,0,1,1,15,31.0423925,-103.5227672,913,2026,6,20,23,46,37,0,0,0,0,0.9,0.4,0.7,42,41,36,0,0,0,0,12,0,38,0,38,0,0,0,0,0,0,0,0,0,0,37,0,38,40,0,29,0,0,33,37
6,16410,3,KR4MFM,0.06,3,   boost,23.64,91273,872.52,-30.3,8.42,52.7,4.19,4.2,4.11,36.23,0.14,1.44,-3.34,7.34,-14.58,0.71,-0.06,0.21,1.87,4.19,0,0,0,0,1,1,15,31.0423925,-103.5227672,913,2026,6,20,23,46,37,0,0,0,0,0.9,0.4,0.7,42,41,36,0,0,0,0,12,0,38,0,38,0,0,0,0,0,0,0,0,0,0,37,0,38,40,0,29,0,0,33,37
6,16410,3,KR4MFM,0.07,3,   boost,22.63,91252,874.42,-28.4,8.64,52.7,4.19,4.2,4.11,31.68,0.58,1.57,-3.16,7.34,-13.91,0.71,-0.06,0.21,2.01,4.19,0,0,0,0,1,1,15,31.0423925,-103.5227672,913,2026,6,20,23,46,37,0,0,0,0,0.9,0.4,0.7,42,41,36,0,0,0,0,12,0,38,0,38,0,0,0,0,0,0,0,0,0,0,37,0,38,40,0,29,0,0,33,37
6,16410,3,KR4MFM,0.08,3,   boost,19.61,91252,874.42,-28.4,8.84,52.7,4.19,4.2,4.11,30.01,0.84,1.7,-3.34,7.15,-13.42,0.7,-0.07,0.21,2.15,4.19,0,0,0,0,1,1,15,31.0423925,-103.5227672,913,2026,6,20,23,46,37,0,0,0,0,0.9,0.4,0.7,42,41,36,0,0,0,0,12,0,38,0,38,0,0,0,0,0,0,0,0,0,0,37,0,38,40,0,29,0,0,33,37
6,16410,3,KR4MFM,0.09,3,   boost,14.58,91242,875.33,-27.49,9,52.7,4.19,4.2,4.11,24.74,0.6,1.24,-4.5,5.51,-12.81,0.71,-0.06,0.21,2.28,4.19,0,0,0,0,1,1,15,31.0423925,-103.5227672,913,2026,6,20,23,46,37,0,0,0,0,0.9,0.4,0.7,42,41,36,0,0,0,0,12,0,38,0,38,0,0,0,0,0,0,0,0,0,0,37,0,38,40,0,29,0,0,33,37
6,16410,3,KR4MFM,0.1,3,   boost,9.05,91242,875.33,-27.49,9.12,52.7,4.19,4.2,4.11,19.66,0.15,0.07,-6.03,3.43,-11.84,0.7,-0.06,0.21,2.4,4.19,0,0,0,0,1,1,15,31.0423925,-103.5227672,913,2026,6,20,23,46,37,0,0,0,0,0.9,0.4,0.7,42,41,36,0,0,0,0,12,0,38,0,38,0,0,0,0,0,0,0,0,0,0,37,0,38,40,0,29,0,0,33,37
6,16410,3,KR4MFM,0.11,3,   boost,4.02,91229,876.51,-26.32,9.2,52.7,4.19,4.2,4.11,18.88,-0.29,-0.68,-6.58,1.9,-10.43,0.7,-0.06,0.21,2.5,4.19,0,0,0,0,1,1,15,31.0423925,-103.5227672,913,2026,6,20,23,46,37,0,0,0,0,0.9,0.4,0.7,42,41,36,0,0,0,0,12,0,38,0,38,0,0,0,0,0,0,0,0,0,0,37,0,38,40,0,29,0,0,33,37
6,16410,3,KR4MFM,0.12,3,   boost,1.01,91229,876.51,-26.32,9.26,52.7,4.19,4.2,4.11,19.12,-0.45,-0.88,-6.39,1.72,-8.66,0.7,-0.06,0.21,2.59,4.19,0,0,0,0,1,1,15,31.0423925,-103.5227672,913,2026,6,20,23,46,37,0,0,0,0,0.9,0.4,0.7,42,41,36,0,0,0,0,12,0,38,0,38,0,0,0,0,0,0,0,0,0,0,37,0,38,40,0,29,0,0,33,37
6,16410,3,KR4MFM,0.13,3,   boost,1.01,91226,876.78,-26.04,9.31,52.7,4.19,4.2,4.11,24.61,-0.22,-1.29,-6.09,2.58,-8.79,0.71,-0.06,0.21,2.68,4.19,0,0,0,0,1,1,15,31.0423925,-103.5227672,913,2026,6,20,23,46,37,0,0,0,0,0.9,0.4,0.7,42,41,36,0,0,0,0,12,0,38,0,38,0,0,0,0,0,0,0,0,0,0,37,0,38,40,0,29,0,0,33,37
6,16410,3,KR4MFM,0.14,3,   boost,3.52,91226,876.78,-26.04,9.36,52.7,4.19,4.2,4.11,28.72,0.29,-0.55,-5.66,3.98,-9.52,0.71,-0.06,0.21,2.78,4.19,0,0,0,0,1,1,15,31.0423925,-103.5227672,913,2026,6,20,23,46,37,0,0,0,0,0.9,0.4,0.7,42,41,36,0,0,0,0,12,0,38,0,38,0,0,0,0,0,0,0,0,0,0,37,0,38,40,0,29,0,0,33,37
6,16410,3,KR4MFM,0.15,3,   boost,5.03,91214,877.87,-24.96,9.43,52.7,4.19,4.2,4.11,33.87,0.57,0.7,-4.99,6.3,-12.51,0.71,-0.06,0.21,2.91,4.19,0,0,0,0,1,1,15,31.0423925,-103.5227672,913,2026,6,20,23,46,37,0,0,0,0,0.9,0.4,0.7,42,41,36,0,0,0,0,12,0,38,0,38,0,0,0,0,0,0,0,0,0,0,37,0,38,40,0,29,0,0,33,37
6,16410,3,KR4MFM,0.16,3,   boost,19.61,91214,877.87,-24.96,9.52,52.7,4.19,4.2,4.11,33.63,0.8,1.59,-4.32,8.8,-15.13,0.71,-0.06,0.21,3.07,4.19,0,0,0,0,1,1,15,31.0423925,-103.5227672,913,2026,6,20,23,46,37,0,0,0,0,0.9,0.4,0.7,42,41,36,0,0,0,0,12,0,38,0,38,0,0,0,0,0,0,0,0,0,0,37,0,38,40,0,29,0,0,33,37
6,16410,3,KR4MFM,0.17,3,   boost,16.09,91201,879.05,-23.78,9.63,52.7,4.19,4.2,4.11,33.68,0.7,1.48,-3.83,9.05,-17.51,0.71,-0.06,0.21,3.26,4.19,0,0,0,0,1,1,15,31.0423925,-103.5227672,913,2026,6,20,23,46,37,0,0,0,0,0.9,0.4,0.7,42,41,36,0,0,0,0,12,0,38,0,38,0,0,0,0,0,0,0,0,0,0,37,0,38,40,0,29,0,0,33,37
6,16410,3,KR4MFM,0.18,3,   boost,8.55,91201,879.05,-23.78,9.73,52.7,4.19,4.2,4.11,26.45,0.17,1.42,-4.01,8.44,-18,0.71,-0.06,0.21,3.45,4.19,0,0,0,0,1,1,15,31.0423925,-103.5227672,913,2026,6,20,23,46,37,0,0,0,0,0.9,0.4,0.7,42,41,36,0,0,0,0,12,0,38,0,38,0,0,0,0,0,0,0,0,0,0,37,0,38,40,0,29,0,0,33,37
6,16410,3,KR4MFM,0.19,3,   boost,5.53,91184,880.59,-22.24,9.82,52.7,4.19,4.2,4.11,22.47,-0.06,1.18,-5.11,7.21,-15.87,0.71,-0.06,0.21,3.62,4.19,0,0,0,0,1,1,15,31.0423925,-103.5227672,913,2026,6,20,23,46,37,0,0,0,0,0.9,0.4,0.7,42,41,36,0,0,0,0,12,0,38,0,38,0,0,0,0,0,0,0,0,0,0,37,0,38,40,0,29,0,0,33,37
6,16410,3,KR4MFM,0.2,3,   boost,3.02,91184,880.59,-22.24,9.89,52.7,4.19,4.2,4.11,17.13,-0.27,-0.04,-6.33,6.36,-14.34,0.71,-0.06,0.21,3.77,4.19,0,0,0,0,1,1,15,31.0423925,-103.5227672,913,2026,6,20,23,46,37,0,0,0,0,0.9,0.4,0.7,42,41,36,0,0,0,0,12,0,38,0,38,0,0,0,0,0,0,0,0,0,0,37,0,38,40,0,29,0,0,33,37
6,16410,3,KR4MFM,0.21,3,   boost,8.55,91156,883.13,-19.7,9.95,52.7,4.19,4.2,4.11,14.3,-0.14,-1.04,-7.31,4.04,-11.29,0.71,-0.06,0.21,3.89,4.19,0,0,0,0,1,1,15,31.0423925,-103.5227672,913,2026,6,20,23,46,37,0,0,0,0,0.9,0.4,0.7,42,41,36,0,0,0,0,12,0,38,0,38,0,0,0,0,0,0,0,0,0,0,37,0,38,40,0,29,0,0,33,37
6,16410,3,KR4MFM,0.22,3,   boost,7.54,91156,883.13,-19.7,10.01,52.7,4.19,4.2,4.11,17.52,-0.06,-1.62,-7.92,3,-10.92,0.71,-0.06,0.21,4,4.19,0,0,0,0,1,1,15,31.0423925,-103.5227672,913,2026,6,20,23,46,37,0,0,0,0,0.9,0.4,0.7,42,41,36,0,0,0,0,12,0,38,0,38,0,0,0,0,0,0,0,0,0,0,37,0,38,40,0,29,0,0,33,37
6,16410,3,KR4MFM,0.23,3,   boost,-0.5,91162,882.58,-20.24,10.08,52.7,4.19,4.2,4.11,23,0.15,-1.07,-8.53,2.27,-9.52,0.71,-0.06,0.21,4.1,4.19,0,0,0,0,1,1,15,31.0423925,-103.5227672,913,2026,6,20,23,46,37,0,0,0,0,0.9,0.4,0.7,42,41,36,0,0,0,0,12,0,38,0,38,0,0,0,0,0,0,0,0,0,0,37,0,38,40,0,29,0,0,33,37
6,16410,3,KR4MFM,0.24,3,   boost,2.01,91162,882.58,-20.24,10.16,52.7,4.19,4.2,4.11,24.29,0.17,-0.89,-7.98,2.64,-10.13,0.71,-0.05,0.21,4.2,4.19,0,0,0,0,1,1,15,31.0423925,-103.5227672,913,2026,6,20,23,46,37,0,0,0,0,0.9,0.4,0.7,42,41,36,0,0,0,0,12,0,38,0,38,0,0,0,0,0,0,0,0,0,0,37,0,38,40,0,29,0,0,33,37
6,16410,3,KR4MFM,0.25,3,   boost,17.6,91145,884.12,-18.7,10.28,52.7,4.19,4.2,4.11,30.05,0.35,-0.35,-7.31,3.31,-11.35,0.71,-0.05,0.21,4.32,4.19,0,0,0,0,1,1,15,31.0423925,-103.5227672,913,2026,6,20,23,46,37,0,0,0,0,0.9,0.4,0.7,42,41,36,0,0,0,0,12,0,38,0,38,0,0,0,0,0,0,0,0,0,0,37,0,38,40,0,29,0,0,33,37
6,16410,3,KR4MFM,0.26,3,   boost,23.13,91145,884.12,-18.7,10.44,52.7,4.19,4.2,4.11,32.19,0.26,0.47,-6.39,5.38,-12.88,0.71,-0.05,0.21,4.46,4.19,0,0,0,0,1,1,15,31.0423925,-103.5227672,913,2026,6,20,23,46,37,0,0,0,0,0.9,0.4,0.7,42,41,36,0,0,0,0,12,0,38,0,38,0,0,0,0,0,0,0,0,0,0,37,0,38,40,0,29,0,0,33,37
6,16410,3,KR4MFM,0.27,3,   boost,27.16,91134,885.12,-17.7,10.63,52.7,4.19,4.2,4.11,28.21,0.26,1.36,-6.58,7.83,-14.77,0.71,-0.05,0.2,4.62,4.19,0,0,0,0,1,1,15,31.0423925,-103.5227672,913,2026,6,20,23,46,37,0,0,0,0,0.9,0.4,0.7,42,41,36,0,0,0,0,12,0,38,0,38,0,0,0,0,0,0,0,0,0,0,37,0,38,40,0,29,0,0,33,37
6,16410,3,KR4MFM,0.28,3,   boost,21.62,91134,885.12,-17.7,10.83,52.7,4.19,4.2,4.11,26.72,0.43,1.87,-5.72,9.53,-16.84,0.71,-0.05,0.2,4.8,4.19,0,0,0,0,1,1,15,31.0423925,-103.5227672,913,2026,6,20,23,46,37,0,0,0,0,0.9,0.4,0.7,42,41,36,0,0,0,0,12,0,38,0,38,0,0,0,0,0,0,0,0,0,0,37,0,38,40,0,29,0,0,33,37
6,16410,3,KR4MFM,0.29,3,   boost,16.6,91122,886.21,-16.61,11.02,52.7,4.19,4.2,4.11,21.04,0.32,1.24,-4.99,10.69,-18.25,0.71,-0.05,0.2,5,4.19,0,0,0,0,1,1,15,31.0423925,-103.5227672,913,2026,6,20,23,46,37,0,0,0,0,0.9,0.4,0.7,42,41,36,0,0,0,0,12,0,38,0,38,0,0,0,0,0,0,0,0,0,0,37,0,38,40,0,29,0,0,33,37
6,16410,3,KR4MFM,0.3,3,   boost,16.6,91122,886.21,-16.61,11.2,52.7,4.19,4.2,4.11,21.3,0.43,0.57,-4.68,8.62,-17.64,0.71,-0.05,0.2,5.19,4.19,0,0,0,0,1,1,15,31.0423925,-103.5227672,913,2026,6,20,23,46,37,0,0,0,0,0.9,0.4,0.7,42,41,36,0,0,0,0,12,0,38,0,38,0,0,0,0,0,0,0,0,0,0,37,0,38,40,0,29,0,0,33,37
6,16410,3,KR4MFM,0.31,3,   boost,15.59,91102,888.02,-14.8,11.38,52.7,4.19,4.2,4.11,21.45,0.1,-0.75,-4.99,6.48,-15.26,0.71,-0.05,0.2,5.36,4.19,0,0,0,0,1,1,15,31.0423925,-103.5227672,913,2026,6,20,23,46,37,0,0,0,0,0.9,0.4,0.7,42,41,36,0,0,0,0,12,0,38,0,38,0,0,0,0,0,0,0,0,0,0,37,0,38,40,0,29,0,0,33,37
6,16410,3,KR4MFM,0.32,3,   boost,12.07,91102,888.02,-14.8,11.55,52.7,4.19,4.2,4.11,26.91,0.04,-1.42,-6.27,3.25,-12.45,0.71,-0.05,0.21,5.49,4.19,0,0,0,0,1,1,15,31.0423925,-103.5227672,913,2026,6,20,23,46,37,0,0,0,0,0.9,0.4,0.7,42,41,36,0,0,0,0,12,0,38,0,38,0,0,0,0,0,0,0,0,0,0,37,0,38,40,0,29,0,0,33,37
6,16410,3,KR4MFM,0.33,3,   boost,22.13,91105,887.75,-15.07,11.73,52.7,4.19,4.2,4.11,30.22,0,-0.81,-6.88,1.78,-10.37,0.71,-0.05,0.21,5.59,4.19,0,0,0,0,1,1,15,31.0423925,-103.5227672,913,2026,6,20,23,46,37,0,0,0,0,0.9,0.4,0.7,42,41,36,0,0,0,0,12,0,38,0,38,0,0,0,0,0,0,0,0,0,0,37,0,38,40,0,29,0,0,33,37
6,16410,3,KR4MFM,0.34,3,   boost,23.64,91105,887.75,-15.07,11.92,52.7,4.18,4.18,4.11,31.2,0.11,0.19,-6.51,3.13,-9.64,0.71,-0.05,0.21,5.69,4.2,0,0,0,0,1,1,15,31.0423925,-103.5227672,913,2026,6,20,23,46,37,0,0,0,0,0.9,0.4,0.7,42,41,36,0,0,0,0,12,0,38,0,38,0,0,0,0,0,0,0,0,0,0,37,0,38,40,0,29,0,0,33,37
6,16410,3,KR4MFM,0.34,3,   boost,23.64,91105,887.75,-15.07,11.92,52.7,4.18,4.18,4.11,31.2,0.11,0.19,-6.51,3.13,-9.64,0.71,-0.05,0.21,5.69,4.2,0,0,0,0,1,1,15,31.0423925,-103.5227672,913,2026,6,20,23,46,37,0,0,0,0,0.9,0.4,0.7,42,41,36,0,0,0,0,12,0,38,0,38,0,0,0,0,0,0,0,0,0,0,37,0,38,40,0,29,0,0,33,37
6,16410,3,KR4MFM,0.35,3,   boost,23.13,91099,888.3,-14.53,12.09,52.7,4.18,4.18,4.11,26.03,0.44,0.93,-4.87,5.57,-11.9,0.71,-0.04,0.2,5.82,4.2,0,0,0,0,1,1,15,31.0423925,-103.5227672,913,2026,6,20,23,46,37,0,0,0,0,0.9,0.4,0.7,42,41,36,0,0,0,0,12,0,38,0,38,0,0,0,0,0,0,0,0,0,0,37,0,38,40,0,29,0,0,33,37
6,16410,3,KR4MFM,0.36,3,   boost,15.59,91099,888.3,-14.53,12.25,52.7,4.18,4.18,4.11,20.9,0.5,1.18,-2.97,7.64,-15.5,0.71,-0.04,0.2,5.99,4.2,0,0,0,0,1,1,15,31.0423925,-103.5227672,913,2026,6,20,23,46,37,0,0,0,0,0.9,0.4,0.7,42,41,36,0,0,0,0,12,0,38,0,38,0,0,0,0,0,0,0,0,0,0,37,0,38,40,0,29,0,0,33,37
6,16410,3,KR4MFM,0.37,3,   boost,7.04,91084,889.66,-13.17,12.37,52.7,4.18,4.18,4.11,18.1,0.42,0.62,-1.27,9.47,-18.12,0.71,-0.04,0.2,6.19,4.2,0,0,0,0,1,1,15,31.0423925,-103.5227672,913,2026,6,20,23,46,37,0,0,0,0,0.9,0.4,0.7,42,41,36,0,0,0,0,12,0,38,0,38,0,0,0,0,0,0,0,0,0,0,37,0,38,40,0,29,0,0,33,37
6,16410,3,KR4MFM,0.38,3,   boost,0,91084,889.66,-13.17,12.46,52.7,4.18,4.18,4.11,19.29,0.13,0.09,-1.08,9.11,-18.8,0.71,-0.04,0.2,6.39,4.2,0,0,0,0,1,1,15,31.0423925,-103.5227672,913,2026,6,20,23,46,37,0,0,0,0,0.9,0.4,0.7,42,41,36,0,0,0,0,12,0,38,0,38,0,0,0,0,0,0,0,0,0,0,37,0,38,40,0,29,0,0,33,37
6,16410,3,KR4MFM,0.39,3,   boost,1.51,91074,890.57,-12.26,12.54,52.7,4.18,4.18,4.11,24.69,-0.01,-0.8,-1.69,7.15,-16.6,0.71,-0.04,0.2,6.57,4.2,0,0,0,0,1,1,15,31.0423925,-103.5227672,913,2026,6,20,23,46,37,0,0,0,0,0.9,0.4,0.7,42,41,36,0,0,0,0,12,0,38,0,38,0,0,0,0,0,0,0,0,0,0,37,0,38,40,0,29,0,0,33,37
6,16410,3,KR4MFM,0.4,3,   boost,9.56,91074,890.57,-12.26,12.63,52.7,4.18,4.18,4.11,27.16,0.06,-1.06,-2.67,4.71,-13.55,0.71,-0.04,0.2,6.72,4.2,0,0,0,0,1,1,15,31.0423925,-103.5227672,913,2026,6,20,23,46,37,0,0,0,0,0.9,0.4,0.7,42,41,36,0,0,0,0,12,0,38,0,38,0,0,0,0,0,0,0,0,0,0,37,0,38,40,0,29,0,0,33,37
6,16410,3,KR4MFM,0.41,3,   boost,16.09,91051,892.65,-10.17,12.75,52.7,4.18,4.18,4.11,33.22,0.22,-0.31,-3.34,3.37,-10.98,0.71,-0.04,0.2,6.83,4.2,0,0,0,0,1,1,15,31.0423925,-103.5227672,913,2026,6,20,23,46,37,0,0,0,0,0.9,0.4,0.7,42,41,36,0,0,0,0,12,0,38,0,38,0,0,0,0,0,0,0,0,0,0,37,0,38,40,0,29,0,0,33,37
6,16410,3,KR4MFM,0.42,3,   boost,21.62,91051,892.65,-10.17,12.9,52.7,4.18,4.18,4.11,28.53,0.45,0.28,-3.04,4.1,-9.88,0.71,-0.04,0.2,6.94,4.2,0,0,0,0,1,1,15,31.0423925,-103.5227672,913,2026,6,20,23,46,37,0,0,0,0,0.9,0.4,0.7,42,41,36,0,0,0,0,12,0,38,0,38,0,0,0,0,0,0,0,0,0,0,37,0,38,40,0,29,0,0,33,37
6,16410,3,KR4MFM,0.43,3,   boost,20.12,91062,891.65,-11.17,13.07,52.7,4.18,4.18,4.11,24.8,0.68,0.76,-1.69,4.83,-11.65,0.71,-0.04,0.2,7.06,4.2,0,0,0,0,1,1,15,31.0423925,-103.5227672,913,2026,6,20,23,46,37,0,0,0,0,0.9,0.4,0.7,42,41,36,0,0,0,0,12,0,38,0,38,0,0,0,0,0,0,0,0,0,0,37,0,38,40,0,29,0,0,33,37
6,16410,3,KR4MFM,0.44,3,   boost,20.12,91062,891.65,-11.17,13.26,52.7,4.18,4.18,4.11,20.37,0.27,1.03,0.32,7.52,-14.95,0.71,-0.04,0.2,7.23,4.2,0,0,0,0,1,1,15,31.0423925,-103.5227672,913,2026,6,20,23,46,37,0,0,0,0,0.9,0.4,0.7,42,41,36,0,0,0,0,12,0,38,0,38,0,0,0,0,0,0,0,0,0,0,37,0,38,40,0,29,0,0,33,37
6,16410,3,KR4MFM,0.45,3,   boost,18.61,91054,892.38,-10.44,13.45,52.7,4.18,4.18,4.11,18.24,0.09,0.78,1.91,9.11,-17.58,0.71,-0.04,0.2,7.42,4.2,0,0,0,0,1,1,15,31.0423925,-103.5227672,913,2026,6,20,23,46,37,0,0,0,0,0.9,0.4,0.7,42,41,36,0,0,0,0,12,0,38,0,38,0,0,0,0,0,0,0,0,0,0,37,0,38,40,0,29,0,0,33,37
6,16410,3,KR4MFM,0.46,3,   boost,21.12,91054,892.38,-10.44,13.64,52.7,4.18,4.18,4.11,23.12,-0.01,0.36,2.52,10.21,-18.8,0.71,-0.03,0.2,7.63,4.2,0,0,0,0,1,1,15,31.0423925,-103.5227672,913,2026,6,20,23,46,37,0,0,0,0,0.9,0.4,0.7,42,41,36,0,0,0,0,12,0,38,0,38,0,0,0,0,0,0,0,0,0,0,37,0,38,40,0,29,0,0,33,37
6,16410,3,KR4MFM,0.47,3,   boost,17.6,91030,894.56,-8.26,13.82,52.7,4.18,4.18,4.11,27.02,0.09,-0.23,1.48,8.13,-17.21,0.71,-0.03,0.2,7.82,4.2,0,0,0,0,1,1,15,31.0423925,-103.5227672,913,2026,6,20,23,46,37,0,0,0,0,0.9,0.4,0.7,42,41,36,0,0,0,0,12,0,38,0,38,0,0,0,0,0,0,0,0,0,0,37,0,38,40,0,29,0,0,33,37
6,16410,3,KR4MFM,0.48,3,   boost,11.06,91030,894.56,-8.26,14,52.7,4.18,4.18,4.11,34.52,0.41,-0.34,0.44,7.46,-14.95,0.71,-0.03,0.2,7.98,4.2,0,0,0,0,1,1,15,31.0423925,-103.5227672,913,2026,6,20,23,46,37,0,0,0,0,0.9,0.4,0.7,42,41,36,0,0,0,0,12,0,38,0,38,0,0,0,0,0,0,0,0,0,0,37,0,38,40,0,29,0,0,33,37
6,16410,3,KR4MFM,0.49,3,   boost,21.12,91036,894.01,-8.81,14.19,52.7,4.18,4.18,4.11,30.79,0.56,-0.02,-0.53,4.77,-11.9,0.71,-0.03,0.2,8.11,4.2,0,0,0,0,1,1,15,31.0423925,-103.5227672,913,2026,6,20,23,46,37,0,0,0,0,0.9,0.4,0.7,42,41,36,0,0,0,0,12,0,38,0,38,0,0,0,0,0,0,0,0,0,0,37,0,38,40,0,29,0,0,33,37
6,16410,3,KR4MFM,0.5,3,   boost,24.14,91036,894.01,-8.81,14.38,52.7,4.18,4.18,4.11,27.72,0.7,0.5,-0.53,3.67,-11.41,0.71,-0.03,0.2,8.23,4.2,0,0,0,0,1,1,15,31.0423925,-103.5227672,913,2026,6,20,23,46,37,0,0,0,0,0.9,0.4,0.7,42,41,36,0,0,0,0,12,0,38,0,38,0,0,0,0,0,0,0,0,0,0,37,0,38,40,0,29,0,0,33,37
6,16410,3,KR4MFM,0.51,3,   boost,26.65,91016,895.83,-6.99,14.56,52.7,4.18,4.18,4.11,19.49,0.2,0.44,0.38,4.41,-11.96,0.71,-0.03,0.2,8.36,4.2,0,0,0,0,1,1,15,31.0423925,-103.5227672,913,2026,6,20,23,46,37,0,0,0,0,0.9,0.4,0.7,42,41,36,0,0,0,0,12,0,38,0,38,0,0,0,0,0,0,0,0,0,0,37,0,38,40,0,29,0,0,33,37
6,16410,3,KR4MFM,0.52,3,   boost,15.59,91016,895.83,-6.99,14.72,52.7,4.18,4.18,4.11,14.69,0.04,0.39,1.73,6.48,-13.91,0.71,-0.03,0.19,8.51,4.2,0,0,0,0,1,1,15,31.0423925,-103.5227672,913,2026,6,20,23,46,37,0,0,0,0,0.9,0.4,0.7,42,41,36,0,0,0,0,12,0,38,0,38,0,0,0,0,0,0,0,0,0,0,37,0,38,40,0,29,0,0,33,37
6,16410,3,KR4MFM,0.53,3,   boost,5.03,91003,897.01,-5.81,14.84,52.7,4.18,4.18,4.11,18.84,-0.14,0.19,3.43,9.17,-16.11,0.71,-0.03,0.2,8.69,4.2,0,0,0,0,1,1,15,31.0423925,-103.5227672,913,2026,6,20,23,46,37,0,0,0,0,0.9,0.4,0.7,42,41,36,0,0,0,0,12,0,38,0,38,0,0,0,0,0,0,0,0,0,0,37,0,38,40,0,29,0,0,33,37
6,16410,3,KR4MFM,0.54,3,   boost,1.01,91003,897.01,-5.81,14.93,52.7,4.18,4.18,4.11,18.92,0.37,0.38,4.35,8.68,-16.42,0.71,-0.03,0.2,8.87,4.2,0,0,0,0,1,1,15,31.0423925,-103.5227672,913,2026,6,20,23,46,37,0,0,0,0,0.9,0.4,0.7,42,41,36,0,0,0,0,12,0,38,0,38,0,0,0,0,0,0,0,0,0,0,37,0,38,40,0,29,0,0,33,37
6,16410,3,KR4MFM,0.55,3,   boost,0.5,90997,897.56,-5.27,15.01,52.7,4.18,4.18,4.11,15,0.18,0.22,3.43,8.92,-15.62,0.71,-0.03,0.2,9.05,4.2,0,0,0,0,1,1,15,31.0423925,-103.5227672,913,2026,6,20,23,46,37,0,0,0,0,0.9,0.4,0.7,42,41,36,0,0,0,0,12,0,38,0,38,0,0,0,0,0,0,0,0,0,0,37,0,38,40,0,29,0,0,33,37
6,16410,3,KR4MFM,0.56,3,   boost,8.05,90997,897.56,-5.27,15.11,52.7,4.18,4.18,4.11,15.88,0.14,-0.24,2.46,6.06,-13.55,0.71,-0.03,0.2,9.2,4.2,0,0,0,0,1,1,15,31.0423925,-103.5227672,913,2026,6,20,23,46,37,0,0,0,0,0.9,0.4,0.7,42,41,36,0,0,0,0,12,0,38,0,38,0,0,0,0,0,0,0,0,0,0,37,0,38,40,0,29,0,0,33,37
6,16410,3,KR4MFM,0.57,3,   boost,17.1,90985,898.65,-4.18,15.24,52.7,4.18,4.18,4.11,22.65,0.12,-0.61,1.6,4.71,-12.02,0.71,-0.02,0.19,9.33,4.2,0,0,0,0,1,1,15,31.0423925,-103.5227672,913,2026,6,20,23,46,37,0,0,0,0,0.9,0.4,0.7,42,41,36,0,0,0,0,12,0,38,0,38,0,0,0,0,0,0,0,0,0,0,37,0,38,40,0,29,0,0,33,37
6,16410,3,KR4MFM,0.58,3,   boost,30.17,90985,898.65,-4.18,15.41,52.7,4.18,4.18,4.11,28.92,0.28,-0.6,1.6,3.92,-10.62,0.71,-0.02,0.19,9.44,4.2,0,0,0,0,1,1,15,31.0423925,-103.5227672,913,2026,6,20,23,46,37,0,0,0,0,0.9,0.4,0.7,42,41,36,0,0,0,0,12,0,38,0,38,0,0,0,0,0,0,0,0,0,0,37,0,38,40,0,29,0,0,33,37
6,16410,3,KR4MFM,0.59,3,   boost,25.15,90984,898.74,-4.09,15.6,52.7,4.18,4.18,4.11,34.88,0.15,-0.13,2.09,4.77,-11.65,0.71,-0.02,0.19,9.56,4.2,0,0,0,0,1,1,15,31.0423925,-103.5227672,913,2026,6,20,23,46,37,0,0,0,0,0.9,0.4,0.7,42,41,36,0,0,0,0,12,0,38,0,38,0,0,0,0,0,0,0,0,0,0,37,0,38,40,0,29,0,0,33,37
6,16410,3,KR4MFM,0.6,3,   boost,20.62,90984,898.74,-4.09,15.78,52.7,4.18,4.18,4.11,29.11,0.32,1.06,3.43,6.6,-13.61,0.71,-0.02,0.19,9.71,4.2,0,0,0,0,1,1,15,31.0423925,-103.5227672,913,2026,6,20,23,46,37,0,0,0,0,0.9,0.4,0.7,42,41,36,0,0,0,0,12,0,38,0,38,0,0,0,0,0,0,0,0,0,0,37,0,38,40,0,29,0,0,33,37
6,16410,3,KR4MFM,0.61,3,   boost,14.58,90977,899.37,-3.45,15.96,52.7,4.18,4.18,4.11,24.34,0.57,1.45,4.11,8.74,-15.38,0.71,-0.02,0.19,9.89,4.2,0,0,0,0,1,1,15,31.0423925,-103.5227672,913,2026,6,20,23,46,37,0,0,0,0,0.9,0.4,0.7,42,41,36,0,0,0,0,12,0,38,0,38,0,0,0,0,0,0,0,0,0,0,37,0,38,40,0,29,0,0,33,37
6,16410,3,KR4MFM,0.62,3,   boost,7.54,90977,899.37,-3.45,16.11,52.7,4.18,4.18,4.11,18.61,0.47,0.79,5.39,9.41,-15.87,0.71,-0.02,0.19,10.07,4.2,0,0,0,0,1,1,15,31.0423925,-103.5227672,913,2026,6,20,23,46,37,0,0,0,0,0.9,0.4,0.7,42,41,36,0,0,0,0,12,0,38,0,38,0,0,0,0,0,0,0,0,0,0,37,0,38,40,0,29,0,0,33,37
6,16410,3,KR4MFM,0.63,3,   boost,8.05,90952,901.64,-1.18,16.25,52.7,4.18,4.18,4.11,20.01,0.64,0.24,4.11,7.76,-14.71,0.71,-0.02,0.19,10.23,4.2,0,0,0,0,1,1,15,31.0423925,-103.5227672,913,2026,6,20,23,46,37,0,0,0,0,0.9,0.4,0.7,42,41,36,0,0,0,0,12,0,38,0,38,0,0,0,0,0,0,0,0,0,0,37,0,38,40,0,29,0,0,33,37
6,16410,3,KR4MFM,0.64,3,   boost,21.12,90952,901.64,-1.18,16.4,52.7,4.18,4.18,4.11,28.06,0.41,-0.42,3.86,6.24,-12.69,0.71,-0.02,0.19,10.37,4.2,0,0,0,0,1,1,15,31.0423925,-103.5227672,913,2026,6,20,23,46,37,0,0,0,0,0.9,0.4,0.7,42,41,36,0,0,0,0,12,0,38,0,38,0,0,0,0,0,0,0,0,0,0,37,0,38,40,0,29,0,0,33,37
6,16410,3,KR4MFM,0.65,3,   boost,22.63,90958,901.1,-1.73,16.54,52.7,4.18,4.18,4.11,28.31,0.38,-0.15,3.43,4.29,-10.68,0.71,-0.02,0.19,10.49,4.2,0,0,0,0,1,1,15,31.0423925,-103.5227672,913,2026,6,20,23,46,37,0,0,0,0,0.9,0.4,0.7,42,41,36,0,0,0,0,12,0,38,0,38,0,0,0,0,0,0,0,0,0,0,37,0,38,40,0,29,0,0,33,37
6,16410,3,KR4MFM,0.66,3,   boost,13.58,90958,901.1,-1.73,16.68,52.7,4.19,4.2,4.11,32.14,0.29,0.29,2.95,5.14,-10.98,0.71,-0.01,0.19,10.61,4.19,0,0,0,0,1,1,15,31.0423925,-103.5227672,913,2026,6,20,23,46,37,0,0,0,0,0.9,0.4,0.7,42,41,36,0,0,0,0,12,0,38,0,38,0,0,0,0,0,0,0,0,0,0,37,0,38,40,0,29,0,0,33,37
6,16410,3,KR4MFM,0.66,3,   boost,13.58,90958,901.1,-1.73,16.68,52.7,4.19,4.2,4.11,32.14,0.29,0.29,2.95,5.14,-10.98,0.71,-0.01,0.19,10.61,4.19,0,0,0,0,1,1,15,31.0423925,-103.5227672,913,2026,6,20,23,46,37,0,0,0,0,0.9,0.4,0.7,42,41,36,0,0,0,0,12,0,38,0,38,0,0,0,0,0,0,0,0,0,0,37,0,38,40,0,29,0,0,33,37
6,16410,3,KR4MFM,0.67,3,   boost,8.55,90945,902.28,-0.55,16.81,52.7,4.19,4.2,4.11,25.04,0.19,0.34,3.86,6.42,-11.9,0.71,-0.01,0.19,10.74,4.19,0,0,0,0,1,1,15,31.0423925,-103.5227672,913,2026,6,20,23,46,37,0,0,0,0,0.9,0.4,0.7,42,41,36,0,0,0,0,12,0,38,0,38,0,0,0,0,0,0,0,0,0,0,37,0,38,40,0,29,0,0,33,37
6,16410,3,KR4MFM,0.68,3,   boost,7.04,90945,902.28,-0.55,16.94,52.7,4.19,4.2,4.11,18.41,0.37,0.34,4.47,7.83,-13.79,0.71,-0.01,0.19,10.9,4.19,0,0,0,0,1,1,15,31.0423925,-103.5227672,913,2026,6,20,23,46,37,0,0,0,0,0.9,0.4,0.7,42,41,36,0,0,0,0,12,0,38,0,38,0,0,0,0,0,0,0,0,0,0,37,0,38,40,0,29,0,0,33,37
6,16410,3,KR4MFM,0.69,3,   boost,13.08,90917,904.82,2,17.07,52.7,4.19,4.2,4.11,17.22,0.37,0.32,4.17,8.8,-14.22,0.71,-0.01,0.19,11.06,4.19,0,0,0,0,1,1,15,31.0423925,-103.5227672,913,2026,6,20,23,46,37,0,0,0,0,0.9,0.4,0.7,42,41,36,0,0,0,0,12,0,38,0,38,0,0,0,0,0,0,0,0,0,0,37,0,38,40,0,29,0,0,33,37
6,16410,3,KR4MFM,0.7,3,   boost,17.1,90917,904.82,2,17.22,52.7,4.19,4.2,4.11,25.84,0.47,0.39,3.8,7.64,-13.49,0.71,-0.01,0.19,11.22,4.19,0,0,0,0,1,1,15,31.0423925,-103.5227672,913,2026,6,20,23,46,37,0,0,0,0,0.9,0.4,0.7,42,41,36,0,0,0,0,12,0,38,0,38,0,0,0,0,0,0,0,0,0,0,37,0,38,40,0,29,0,0,33,37
6,16410,3,KR4MFM,0.71,3,   boost,22.13,90928,903.82,1,17.39,52.7,4.19,4.2,4.11,30.11,0.54,0.2,3.68,6.18,-11.78,0.71,-0.01,0.18,11.35,4.19,0,0,0,0,1,1,15,31.0423925,-103.5227672,913,2026,6,20,23,46,37,0,0,0,0,0.9,0.4,0.7,42,41,36,0,0,0,0,12,0,38,0,38,0,0,0,0,0,0,0,0,0,0,37,0,38,40,0,29,0,0,33,37
6,16410,3,KR4MFM,0.72,3,   boost,21.62,90928,903.82,1,17.57,52.7,4.19,4.2,4.11,34.39,0.58,0.59,3.5,5.2,-10.56,0.71,-0.01,0.19,11.46,4.19,0,0,0,0,1,1,15,31.0423925,-103.5227672,913,2026,6,20,23,46,37,0,0,0,0,0.9,0.4,0.7,42,41,36,0,0,0,0,12,0,38,0,38,0,0,0,0,0,0,0,0,0,0,37,0,38,40,0,29,0,0,33,37
6,16410,3,KR4MFM,0.73,3,   boost,21.12,90909,905.55,2.73,17.75,52.7,4.19,4.2,4.11,29.02,0.4,0.91,3.25,5.63,-10.8,0.71,-0.01,0.19,11.59,4.19,0,0,0,0,1,1,15,31.0423925,-103.5227672,913,2026,6,20,23,46,37,0,0,0,0,0.9,0.4,0.7,42,41,36,0,0,0,0,12,0,38,0,38,0,0,0,0,0,0,0,0,0,0,37,0,38,40,0,29,0,0,33,37
6,16410,3,KR4MFM,0.74,3,   boost,20.12,90909,905.55,2.73,17.92,52.7,4.19,4.2,4.11,21.56,0.4,0.7,3.25,6.67,-11.78,0.71,-0.01,0.19,11.72,4.19,0,0,0,0,1,1,15,31.0423925,-103.5227672,913,2026,6,20,23,46,37,0,0,0,0,0.9,0.4,0.7,42,41,36,0,0,0,0,12,0,38,0,38,0,0,0,0,0,0,0,0,0,0,37,0,38,40,0,29,0,0,33,37
6,16410,3,KR4MFM,0.75,3,   boost,11.57,90906,905.82,3,18.06,52.7,4.19,4.2,4.11,16.93,0.34,0.25,3.01,8.01,-12.94,0.71,-0.01,0.18,11.87,4.19,0,0,0,0,1,1,15,31.0423925,-103.5227672,913,2026,6,20,23,46,37,0,0,0,0,0.9,0.4,0.7,42,41,36,0,0,0,0,12,0,38,0,38,0,0,0,0,0,0,0,0,0,0,37,0,38,40,0,29,0,0,33,37
6,16410,3,KR4MFM,0.76,3,   boost,6.03,90906,905.82,3,18.19,52.7,4.19,4.2,4.11,20.47,0.45,0.14,2.21,7.89,-13.3,0.71,-0.01,0.18,12.02,4.19,0,0,0,0,1,1,15,31.0423925,-103.5227672,913,2026,6,20,23,46,37,0,0,0,0,0.9,0.4,0.7,42,41,36,0,0,0,0,12,0,38,0,38,0,0,0,0,0,0,0,0,0,0,37,0,38,40,0,29,0,0,33,37
6,16410,3,KR4MFM,0.77,3,   boost,7.54,90884,907.82,5,18.31,52.7,4.19,4.2,4.11,28.11,0.45,-0.06,2.09,6.73,-11.53,0.71,0,0.19,12.15,4.19,0,0,0,0,1,1,15,31.0423925,-103.5227672,913,2026,6,20,23,46,37,0,0,0,0,0.9,0.4,0.7,42,41,36,0,0,0,0,12,0,38,0,38,0,0,0,0,0,0,0,0,0,0,37,0,38,40,0,29,0,0,33,37
6,16410,3,KR4MFM,0.78,3,   boost,18.61,90884,907.82,5,18.43,52.7,4.19,4.2,4.11,28.31,0.62,-0.22,0.93,4.83,-9.7,0.71,0,0.19,12.26,4.19,0,0,0,0,1,1,15,31.0423925,-103.5227672,913,2026,6,20,23,46,37,0,0,0,0,0.9,0.4,0.7,42,41,36,0,0,0,0,12,0,38,0,38,0,0,0,0,0,0,0,0,0,0,37,0,38,40,0,29,0,0,33,37
6,16410,3,KR4MFM,0.79,3,   boost,15.09,90887,907.55,4.73,18.54,52.7,4.19,4.2,4.11,29.15,0.41,-0.29,0.63,3.8,-8.54,0.71,0,0.18,12.35,4.19,0,0,0,0,1,1,15,31.0423925,-103.5227672,913,2026,6,20,23,46,37,0,0,0,0,0.9,0.4,0.7,42,41,36,0,0,0,0,12,0,38,0,38,0,0,0,0,0,0,0,0,0,0,37,0,38,40,0,29,0,0,33,37
6,16410,3,KR4MFM,0.8,3,   boost,9.56,90887,907.55,4.73,18.65,52.7,4.19,4.2,4.11,20.97,0.29,0.42,0.38,5.14,-9.4,0.71,0,0.18,12.46,4.19,0,0,0,0,1,1,15,31.0423925,-103.5227672,913,2026,6,20,23,46,37,0,0,0,0,0.9,0.4,0.7,42,41,36,0,0,0,0,12,0,38,0,38,0,0,0,0,0,0,0,0,0,0,37,0,38,40,0,29,0,0,33,37
6,16410,3,KR4MFM,0.81,3,   boost,9.05,90865,909.55,6.73,18.76,52.7,4.19,4.2,4.11,17.75,0.25,0.55,1.11,6.3,-10.5,0.71,0,0.18,12.58,4.19,0,0,0,0,1,1,15,31.0423925,-103.5227672,913,2026,6,20,23,46,37,0,0,0,0,0.9,0.4,0.7,42,41,36,0,0,0,0,12,0,38,0,38,0,0,0,0,0,0,0,0,0,0,37,0,38,40,0,29,0,0,33,37
6,16410,3,KR4MFM,0.82,3,   boost,8.55,90865,909.55,6.73,18.88,52.7,4.19,4.2,4.11,19.61,0.34,0.53,1.05,7.46,-11.59,0.71,0,0.18,12.72,4.19,0,0,0,0,1,1,15,31.0423925,-103.5227672,913,2026,6,20,23,46,37,0,0,0,0,0.9,0.4,0.7,42,41,36,0,0,0,0,12,0,38,0,38,0,0,0,0,0,0,0,0,0,0,37,0,38,40,0,29,0,0,33,37
6,16410,3,KR4MFM,0.83,3,   boost,9.05,90847,911.19,8.36,19.01,52.7,4.19,4.2,4.11,26.36,0.64,0.29,0.81,7.09,-11.47,0.71,0,0.18,12.85,4.19,0,0,0,0,1,1,15,31.0423925,-103.5227672,913,2026,6,20,23,46,37,0,0,0,0,0.9,0.4,0.7,42,41,36,0,0,0,0,12,0,38,0,38,0,0,0,0,0,0,0,0,0,0,37,0,38,40,0,29,0,0,33,37
6,16410,3,KR4MFM,0.84,3,   boost,21.62,90847,911.19,8.36,19.16,52.7,4.19,4.2,4.11,30.4,0.65,-0.22,-0.35,5.87,-10.13,0.71,0,0.18,12.96,4.19,0,0,0,0,1,1,15,31.0423925,-103.5227672,913,2026,6,20,23,46,37,0,0,0,0,0.9,0.4,0.7,42,41,36,0,0,0,0,12,0,38,0,38,0,0,0,0,0,0,0,0,0,0,37,0,38,40,0,29,0,0,33,37
6,16410,3,KR4MFM,0.85,3,   boost,24.14,90843,911.55,8.73,19.33,52.7,4.19,4.2,4.11,32.33,0.7,0.28,-1.14,4.1,-8.24,0.71,0,0.18,13.06,4.19,0,0,0,0,1,1,15,31.0423925,-103.5227672,913,2026,6,20,23,46,37,0,0,0,0,0.9,0.4,0.7,42,41,36,0,0,0,0,12,0,38,0,38,0,0,0,0,0,0,0,0,0,0,37,0,38,40,0,29,0,0,33,37
6,16410,3,KR4MFM,0.86,3,   boost,24.64,90843,911.55,8.73,19.51,52.7,4.19,4.2,4.11,25.09,0.41,0.63,-1.27,4.22,-7.44,0.71,0,0.18,13.14,4.19,0,0,0,0,1,1,15,31.0423925,-103.5227672,913,2026,6,20,23,46,37,0,0,0,0,0.9,0.4,0.7,42,41,36,0,0,0,0,12,0,38,0,38,0,0,0,0,0,0,0,0,0,0,37,0,38,40,0,29,0,0,33,37
6,16410,3,KR4MFM,0.87,3,   boost,20.62,90851,910.82,8,19.68,52.7,4.19,4.2,4.11,19.33,0.27,0.45,-1.08,5.2,-7.99,0.71,0,0.18,13.23,4.19,0,0,0,0,1,1,15,31.0423925,-103.5227672,913,2026,6,20,23,46,37,0,0,0,0,0.9,0.4,0.7,42,41,36,0,0,0,0,12,0,38,0,38,0,0,0,0,0,0,0,0,0,0,37,0,38,40,0,29,0,0,33,37
6,16410,3,KR4MFM,0.88,3,   boost,9.56,90851,910.82,8,19.83,52.7,4.19,4.2,4.11,18.17,0.25,0.43,-0.35,6.54,-9.82,0.71,0,0.18,13.35,4.19,0,0,0,0,1,1,15,31.0423925,-103.5227672,913,2026,6,20,23,46,37,0,0,0,0,0.9,0.4,0.7,42,41,36,0,0,0,0,12,0,38,0,38,0,0,0,0,0,0,0,0,0,0,37,0,38,40,0,29,0,0,33,37
6,16410,3,KR4MFM,0.89,3,   boost,4.53,90823,913.37,10.55,19.96,52.7,4.19,4.2,4.11,23.31,0.47,0.69,-0.72,6.73,-10.8,0.71,0,0.18,13.47,4.19,0,0,0,0,1,1,15,31.0423925,-103.5227672,913,2026,6,20,23,46,37,0,0,0,0,0.9,0.4,0.7,42,41,36,0,0,0,0,12,0,38,0,38,0,0,0,0,0,0,0,0,0,0,37,0,38,40,0,29,0,0,33,37
6,16410,3,KR4MFM,0.9,3,   boost,11.06,90823,913.37,10.55,20.1,52.7,4.19,4.2,4.11,29.89,0.6,0.03,-1.75,7.21,-10.5,0.71,0.01,0.18,13.6,4.19,0,0,0,0,1,1,15,31.0423925,-103.5227672,913,2026,6,20,23,46,37,0,0,0,0,0.9,0.4,0.7,42,41,36,0,0,0,0,12,0,38,0,38,0,0,0,0,0,0,0,0,0,0,37,0,38,40,0,29,0,0,33,37
6,16410,3,KR4MFM,0.91,3,   boost,15.59,90820,913.64,10.82,20.24,52.7,4.19,4.2,4.11,33.67,0.71,-0.06,-2.18,4.96,-8.48,0.71,0.01,0.18,13.7,4.19,0,0,0,0,1,1,15,31.0423925,-103.5227672,913,2026,6,20,23,46,37,0,0,0,0,0.9,0.4,0.7,42,41,36,0,0,0,0,12,0,38,0,38,0,0,0,0,0,0,0,0,0,0,37,0,38,40,0,29,0,0,33,37
6,16410,3,KR4MFM,0.92,3,   boost,26.15,90820,913.64,10.82,20.4,52.7,4.19,4.2,4.11,25.27,0.54,0.37,-3.1,4.04,-6.41,0.71,0.01,0.18,13.77,4.19,0,0,0,0,1,1,15,31.0423925,-103.5227672,913,2026,6,20,23,46,37,0,0,0,0,0.9,0.4,0.7,42,41,36,0,0,0,0,12,0,38,0,38,0,0,0,0,0,0,0,0,0,0,37,0,38,40,0,29,0,0,33,37
6,16410,3,KR4MFM,0.93,3,   boost,22.13,90812,914.37,11.55,20.58,52.7,4.19,4.2,4.11,18.86,0.32,0.41,-2.97,3.61,-6.1,0.71,0.01,0.17,13.84,4.19,0,0,0,0,1,1,15,31.0423925,-103.5227672,913,2026,6,20,23,46,37,0,0,0,0,0.9,0.4,0.7,42,41,36,0,0,0,0,12,0,38,0,38,0,0,0,0,0,0,0,0,0,0,37,0,38,40,0,29,0,0,33,37
6,16410,3,KR4MFM,0.94,3,   boost,15.59,90812,914.37,11.55,20.76,52.7,4.19,4.2,4.11,17.8,0.27,0.2,-3.04,4.41,-7.26,0.71,0.01,0.18,13.92,4.19,0,0,0,0,1,1,15,31.0423925,-103.5227672,913,2026,6,20,23,46,37,0,0,0,0,0.9,0.4,0.7,42,41,36,0,0,0,0,12,0,38,0,38,0,0,0,0,0,0,0,0,0,0,37,0,38,40,0,29,0,0,33,37
6,16410,3,KR4MFM,0.94,3,   boost,15.59,90812,914.37,11.55,20.76,52.7,4.19,4.2,4.11,17.8,0.27,0.2,-3.04,4.41,-7.26,0.71,0.01,0.18,13.92,4.19,0,0,0,0,1,1,15,31.0423925,-103.5227672,913,2026,6,20,23,46,37,0,0,0,0,0.9,0.4,0.7,42,41,36,0,0,0,0,12,0,38,0,38,0,0,0,0,0,0,0,0,0,0,37,0,38,40,0,29,0,0,33,37
6,16410,3,KR4MFM,0.94,3,   boost,15.59,90812,914.37,11.55,20.76,52.7,4.19,4.2,4.11,17.8,0.27,0.2,-3.04,4.41,-7.26,0.71,0.01,0.18,13.92,4.19,0,0,0,0,1,1,15,31.0423925,-103.5227672,913,2026,6,20,23,46,37,0,0,0,0,0.9,0.4,0.7,42,41,36,0,0,0,0,12,0,38,0,38,0,0,0,0,0,0,0,0,0,0,37,0,38,40,0,29,0,0,33,37
6,16410,3,KR4MFM,0.95,3,   boost,17.1,90785,916.83,14,20.95,52.7,4.19,4.2,4.11,22.81,0.4,0.48,-2.12,5.81,-8.24,0.71,0.01,0.18,14.02,4.19,0,0,0,0,1,1,15,31.0423905,-103.5227535,947,2026,6,20,23,46,38,1,34,100,88,0.9,0.4,0.7,41,41,35,0,0,0,0,14,0,34,0,37,0,0,0,0,0,0,0,0,0,0,37,0,35,37,0,29,0,0,33,40
6,16410,3,KR4MFM,0.96,3,   boost,22.13,90785,916.83,14,21.13,52.7,4.19,4.2,4.11,32.9,0.59,0.41,-3.34,5.99,-8.11,0.71,0.01,0.18,14.12,4.19,0,0,0,0,1,1,15,31.0423905,-103.5227535,947,2026,6,20,23,46,38,1,34,100,88,0.9,0.4,0.7,41,41,35,0,0,0,0,14,0,34,0,37,0,0,0,0,0,0,0,0,0,0,37,0,35,37,0,29,0,0,33,40
6,16410,3,KR4MFM,0.97,3,   boost,20.62,90784,916.92,14.09,21.3,52.7,4.19,4.2,4.11,31.17,0.74,0.31,-3.77,4.9,-6.1,0.71,0.01,0.18,14.2,4.19,0,0,0,0,1,1,15,31.0423905,-103.5227535,947,2026,6,20,23,46,38,1,34,100,88,0.9,0.4,0.7,41,41,35,0,0,0,0,14,0,34,0,37,0,0,0,0,0,0,0,0,0,0,37,0,35,37,0,29,0,0,33,40
6,16410,3,KR4MFM,0.98,3,   boost,16.6,90784,916.92,14.09,21.45,52.7,4.19,4.2,4.11,24.41,0.63,0.75,-4.32,3.67,-5.61,0.71,0.01,0.18,14.26,4.2,0,0,0,0,1,1,15,31.0423905,-103.5227535,947,2026,6,20,23,46,38,1,34,100,88,0.9,0.4,0.7,41,41,35,0,0,0,0,14,0,34,0,37,0,0,0,0,0,0,0,0,0,0,37,0,35,37,0,29,0,0,33,40
6,16410,3,KR4MFM,0.98,3,   boost,16.6,90784,916.92,14.09,21.45,52.7,4.19,4.2,4.11,24.41,0.63,0.75,-4.32,3.67,-5.61,0.71,0.01,0.18,14.26,4.2,0,0,0,0,1,1,15,31.0423905,-103.5227535,947,2026,6,20,23,46,38,1,34,100,88,0.9,0.4,0.7,41,41,35,0,0,0,0,14,0,34,0,37,0,0,0,0,0,0,0,0,0,0,37,0,35,37,0,29,0,0,33,40
6,16410,3,KR4MFM,0.99,3,   boost,11.06,90775,917.74,14.91,21.59,52.7,4.19,4.2,4.11,18.33,0.4,0.39,-4.2,3.67,-5.61,0.71,0.01,0.18,14.33,4.2,0,0,0,0,1,1,15,31.0423905,-103.5227535,947,2026,6,20,23,46,38,1,34,100,88,0.9,0.4,0.7,41,41,35,0,0,0,0,14,0,34,0,37,0,0,0,0,0,0,0,0,0,0,37,0,35,37,0,29,0,0,33,40
6,16410,3,KR4MFM,1,3,   boost,8.05,90775,917.74,14.91,21.72,52.7,4.19,4.2,4.11,21.95,0.41,0.4,-3.83,4.41,-6.89,0.71,0.01,0.18,14.41,4.2,0,0,0,0,1,1,15,31.0423905,-103.5227535,947,2026,6,20,23,46,38,1,34,100,88,0.9,0.4,0.7,41,41,35,0,0,0,0,14,0,34,0,37,0,0,0,0,0,0,0,0,0,0,37,0,35,37,0,29,0,0,33,40
6,16410,3,KR4MFM,1.01,3,   boost,11.57,90775,917.74,14.91,21.85,52.7,4.19,4.2,4.11,28.82,0.47,0.21,-3.1,5.44,-6.89,0.71,0.01,0.17,14.49,4.2,0,0,0,0,1,1,15,31.0423905,-103.5227535,947,2026,6,20,23,46,38,1,34,100,88,0.9,0.4,0.7,41,41,35,0,0,0,0,14,0,34,0,37,0,0,0,0,0,0,0,0,0,0,37,0,35,37,0,29,0,0,33,40
6,16410,3,KR4MFM,1.02,3,   boost,12.57,90775,917.74,14.91,21.99,52.7,4.19,4.2,4.11,32.88,0.68,0.27,-3.95,5.08,-5.86,0.71,0.01,0.17,14.57,4.2,0,0,0,0,1,1,15,31.0423905,-103.5227535,947,2026,6,20,23,46,38,1,34,100,88,0.9,0.4,0.7,41,41,35,0,0,0,0,14,0,34,0,37,0,0,0,0,0,0,0,0,0,0,37,0,35,37,0,29,0,0,33,40
6,16410,3,KR4MFM,1.03,3,   boost,23.13,90765,918.65,15.82,22.13,52.7,4.19,4.2,4.11,26.68,0.55,0.88,-4.38,3.43,-4.15,0.71,0.01,0.17,14.62,4.2,0,0,0,0,1,1,15,31.0423905,-103.5227535,947,2026,6,20,23,46,38,1,34,100,88,0.9,0.4,0.7,41,41,35,0,0,0,0,14,0,34,0,37,0,0,0,0,0,0,0,0,0,0,37,0,35,37,0,29,0,0,33,40
6,16410,3,KR4MFM,1.04,3,   boost,22.13,90765,918.65,15.82,22.28,52.7,4.19,4.2,4.11,20.21,0.61,1.01,-5.05,2.27,-3.72,0.71,0.01,0.17,14.66,4.2,0,0,0,0,1,1,15,31.0423905,-103.5227535,947,2026,6,20,23,46,38,1,34,100,88,0.9,0.4,0.7,41,41,35,0,0,0,0,14,0,34,0,37,0,0,0,0,0,0,0,0,0,0,37,0,35,37,0,29,0,0,33,40
6,16410,3,KR4MFM,1.05,3,   boost,17.6,90755,919.56,16.73,22.42,52.7,4.19,4.2,4.11,19.13,0.45,0.2,-5.42,3.43,-4.09,0.71,0.01,0.17,14.71,4.2,0,0,0,0,1,1,15,31.0423905,-103.5227535,947,2026,6,20,23,46,38,1,34,100,88,0.9,0.4,0.7,41,41,35,0,0,0,0,14,0,34,0,37,0,0,0,0,0,0,0,0,0,0,37,0,35,37,0,29,0,0,33,40
6,16410,3,KR4MFM,1.06,3,   boost,5.53,90755,919.56,16.73,22.54,52.7,4.19,4.2,4.11,23.09,0.61,1.25,-4.81,3.98,-5.49,0.71,0.01,0.18,14.78,4.2,0,0,0,0,1,1,15,31.0423905,-103.5227535,947,2026,6,20,23,46,38,1,34,100,88,0.9,0.4,0.7,41,41,35,0,0,0,0,14,0,34,0,37,0,0,0,0,0,0,0,0,0,0,37,0,35,37,0,29,0,0,33,40
6,16410,3,KR4MFM,1.07,3,   boost,2.51,90743,920.65,17.82,22.64,52.7,4.19,4.2,4.11,19.02,0.4,0.35,-4.74,5.51,-6.16,0.71,0.01,0.18,14.86,4.2,0,0,0,0,1,1,15,31.0423905,-103.5227535,947,2026,6,20,23,46,38,1,34,100,88,0.9,0.4,0.7,41,41,35,0,0,0,0,14,0,34,0,37,0,0,0,0,0,0,0,0,0,0,37,0,35,37,0,29,0,0,33,40
6,16410,3,KR4MFM,1.08,3,   boost,5.03,90743,920.65,17.82,22.72,52.7,4.19,4.2,4.11,22,0.7,0.33,-4.81,3.74,-4.64,0.71,0.01,0.18,14.91,4.2,0,0,0,0,1,1,15,31.0423905,-103.5227535,947,2026,6,20,23,46,38,1,34,100,88,0.9,0.4,0.7,41,41,35,0,0,0,0,14,0,34,0,37,0,0,0,0,0,0,0,0,0,0,37,0,35,37,0,29,0,0,33,40
6,16410,3,KR4MFM,1.09,3,   boost,18.61,90742,920.74,17.92,22.81,52.7,4.19,4.2,4.11,27.54,0.57,-0.19,-5.72,3.13,-3.17,0.71,0.01,0.18,14.95,4.2,0,0,0,0,1,1,15,31.0423905,-103.5227535,947,2026,6,20,23,46,38,1,34,100,88,0.9,0.4,0.7,41,41,35,0,0,0,0,14,0,34,0,37,0,0,0,0,0,0,0,0,0,0,37,0,35,37,0,29,0,0,33,40
6,16410,3,KR4MFM,1.1,3,   boost,6.03,90742,920.74,17.92,22.9,52.7,4.19,4.2,4.11,29.81,0.68,-0.32,-6.51,1.11,-1.64,0.71,0.01,0.17,14.97,4.2,0,0,0,0,1,1,15,31.0423905,-103.5227535,947,2026,6,20,23,46,38,1,34,100,88,0.9,0.4,0.7,41,41,35,0,0,0,0,14,0,34,0,37,0,0,0,0,0,0,0,0,0,0,37,0,35,37,0,29,0,0,33,40
6,16410,3,KR4MFM,1.11,3,   boost,5.53,90719,922.83,20.01,23.02,52.7,4.19,4.2,4.11,23.7,0.36,0.2,-6.51,2.88,-2.68,0.71,0.01,0.17,15.01,4.2,0,0,0,0,1,1,15,31.0423905,-103.5227535,947,2026,6,20,23,46,38,1,34,100,88,0.9,0.4,0.7,41,41,35,0,0,0,0,14,0,34,0,37,0,0,0,0,0,0,0,0,0,0,37,0,35,37,0,29,0,0,33,40
6,16410,3,KR4MFM,1.12,3,   boost,17.6,90719,922.83,20.01,23.15,52.7,4.19,4.2,4.11,17.78,0.35,0.63,-6.09,3,-3.9,0.71,0.01,0.17,15.06,4.2,0,0,0,0,1,1,15,31.0423905,-103.5227535,947,2026,6,20,23,46,38,1,34,100,88,0.9,0.4,0.7,41,41,35,0,0,0,0,14,0,34,0,37,0,0,0,0,0,0,0,0,0,0,37,0,35,37,0,29,0,0,33,40
6,16410,3,KR4MFM,1.13,3,   boost,28.67,90712,923.47,20.65,23.31,52.7,4.19,4.2,4.11,23.23,0.39,0.88,-5.78,4.65,-4.33,0.71,0.01,0.17,15.11,4.2,0,0,0,0,1,1,15,31.0423905,-103.5227535,947,2026,6,20,23,46,38,1,34,100,88,0.9,0.4,0.7,41,41,35,0,0,0,0,14,0,34,0,37,0,0,0,0,0,0,0,0,0,0,37,0,35,37,0,29,0,0,33,40
6,16410,3,KR4MFM,1.14,3,   boost,20.62,90712,923.47,20.65,23.46,52.7,4.19,4.2,4.11,32.68,0.75,1.17,-6.15,3.31,-2.44,0.71,0.01,0.17,15.15,4.2,0,0,0,0,1,1,15,31.0423905,-103.5227535,947,2026,6,20,23,46,38,1,34,100,88,0.9,0.4,0.7,41,41,35,0,0,0,0,14,0,34,0,37,0,0,0,0,0,0,0,0,0,0,37,0,35,37,0,29,0,0,33,40
6,16410,3,KR4MFM,1.15,3,   boost,10.56,90730,921.83,19.01,23.61,52.7,4.19,4.2,4.11,29.53,0.88,0.26,-6.58,2.64,-1.22,0.71,0.01,0.17,15.17,4.2,0,0,0,0,1,1,15,31.0423905,-103.5227535,947,2026,6,20,23,46,38,1,34,100,88,0.9,0.4,0.7,41,41,35,0,0,0,0,14,0,34,0,37,0,0,0,0,0,0,0,0,0,0,37,0,35,37,0,29,0,0,33,40
6,16410,3,KR4MFM,1.16,3,   boost,8.05,90730,921.83,19.01,23.74,52.7,4.19,4.2,4.11,23.41,0.63,-0.24,-7,1.84,-1.4,0.71,0.01,0.17,15.19,4.2,0,0,0,0,1,1,15,31.0423905,-103.5227535,947,2026,6,20,23,46,38,1,34,100,88,0.9,0.4,0.7,41,41,35,0,0,0,0,14,0,34,0,37,0,0,0,0,0,0,0,0,0,0,37,0,35,37,0,29,0,0,33,40
6,16410,3,KR4MFM,1.17,3,   boost,11.57,90695,925.02,22.19,23.87,52.7,4.19,4.2,4.11,17.26,0.37,0,-7.8,2.76,-2.99,0.71,0.01,0.17,15.23,4.2,0,0,0,0,1,1,15,31.0423905,-103.5227535,947,2026,6,20,23,46,38,1,34,100,88,0.9,0.4,0.7,41,41,35,0,0,0,0,14,0,34,0,37,0,0,0,0,0,0,0,0,0,0,37,0,35,37,0,29,0,0,33,40
6,16410,3,KR4MFM,1.18,3,   boost,14.08,90695,925.02,22.19,24,52.7,4.19,4.2,4.11,18.26,0.07,0.66,-8.35,3.67,-2.87,0.71,0.01,0.17,15.27,4.2,0,0,0,0,1,1,15,31.0423905,-103.5227535,947,2026,6,20,23,46,38,1,34,100,88,0.9,0.4,0.7,41,41,35,0,0,0,0,14,0,34,0,37,0,0,0,0,0,0,0,0,0,0,37,0,35,37,0,29,0,0,33,40
6,16410,3,KR4MFM,1.19,3,   boost,12.57,90683,926.11,23.29,24.13,52.7,4.19,4.2,4.11,31.15,0.41,1.1,-7.49,4.1,-2.07,0.71,0.01,0.18,15.3,4.2,0,0,0,0,1,1,15,31.0423905,-103.5227535,947,2026,6,20,23,46,38,1,34,100,88,0.9,0.4,0.7,41,41,35,0,0,0,0,14,0,34,0,37,0,0,0,0,0,0,0,0,0,0,37,0,35,37,0,29,0,0,33,40
6,16410,3,KR4MFM,1.2,3,   boost,21.62,90683,926.11,23.29,24.28,52.7,4.19,4.2,4.11,31.15,0.89,0.6,-7.37,1.36,0.55,0.71,0.01,0.17,15.3,4.2,0,0,0,0,1,1,15,31.0423905,-103.5227535,947,2026,6,20,23,46,38,1,34,100,88,0.9,0.4,0.7,41,41,35,0,0,0,0,14,0,34,0,37,0,0,0,0,0,0,0,0,0,0,37,0,35,37,0,29,0,0,33,40
6,16410,3,KR4MFM,1.21,3,   boost,21.12,90668,927.48,24.65,24.43,52.7,4.19,4.2,4.11,29.84,0.93,0.38,-7.98,0.75,0.86,0.71,0.01,0.17,15.3,4.2,0,0,0,0,1,1,15,31.0423905,-103.5227535,947,2026,6,20,23,46,38,1,34,100,88,0.9,0.4,0.7,41,41,35,0,0,0,0,14,0,34,0,37,0,0,0,0,0,0,0,0,0,0,37,0,35,37,0,29,0,0,33,40
6,16410,3,KR4MFM,1.22,3,   boost,14.08,90668,927.48,24.65,24.57,52.7,4.19,4.2,4.11,19.74,0.61,0.54,-9.2,1.36,0.43,0.71,0.01,0.17,15.3,4.2,0,0,0,0,1,1,15,31.0423905,-103.5227535,947,2026,6,20,23,46,38,1,34,100,88,0.9,0.4,0.7,41,41,35,0,0,0,0,14,0,34,0,37,0,0,0,0,0,0,0,0,0,0,37,0,35,37,0,29,0,0,33,40
6,16410,3,KR4MFM,1.23,3,   boost,8.55,90653,928.84,26.02,24.71,52.7,4.19,4.2,4.11,16.89,0.42,0.3,-8.89,3.06,-1.58,0.71,0.01,0.17,15.33,4.2,0,0,0,0,1,1,15,31.0423905,-103.5227535,947,2026,6,20,23,46,38,1,34,100,88,0.9,0.4,0.7,41,41,35,0,0,0,0,14,0,34,0,37,0,0,0,0,0,0,0,0,0,0,37,0,35,37,0,29,0,0,33,40
6,16410,3,KR4MFM,1.24,3,   boost,10.06,90653,928.84,26.02,24.84,52.7,4.19,4.2,4.11,25.8,0.44,0.47,-9.02,2.64,-1.71,0.71,0.01,0.17,15.35,4.2,0,0,0,0,1,1,15,31.0423905,-103.5227535,947,2026,6,20,23,46,38,1,34,100,88,0.9,0.4,0.7,41,41,35,0,0,0,0,14,0,34,0,37,0,0,0,0,0,0,0,0,0,0,37,0,35,37,0,29,0,0,33,40
6,16410,3,KR4MFM,1.25,3,   boost,20.12,90658,928.39,25.56,24.96,52.7,4.19,4.2,4.11,30.63,0.61,0.39,-8.89,2.52,-0.24,0.71,0.01,0.17,15.36,4.2,0,0,0,0,1,1,15,31.0423905,-103.5227535,947,2026,6,20,23,46,38,1,34,100,88,0.9,0.4,0.7,41,41,35,0,0,0,0,14,0,34,0,37,0,0,0,0,0,0,0,0,0,0,37,0,35,37,0,29,0,0,33,40
6,16410,3,KR4MFM,1.26,3,   boost,10.06,90658,928.39,25.56,25.08,52.7,4.19,4.2,4.11,28.01,0.52,0.12,-9.38,1.48,1.1,0.71,0.01,0.17,15.36,4.2,0,0,0,0,1,1,15,31.0423905,-103.5227535,947,2026,6,20,23,46,38,1,34,100,88,0.9,0.4,0.7,41,41,35,0,0,0,0,14,0,34,0,37,0,0,0,0,0,0,0,0,0,0,37,0,35,37,0,29,0,0,33,40
6,16410,3,KR4MFM,1.27,3,   boost,9.56,90635,930.48,27.66,25.2,52.7,4.19,4.2,4.11,20.04,0.49,0.42,-9.44,0.68,1.47,0.71,0.01,0.17,15.35,4.2,0,0,0,0,1,1,15,31.0423905,-103.5227535,947,2026,6,20,23,46,38,1,34,100,88,0.9,0.4,0.7,41,41,35,0,0,0,0,14,0,34,0,37,0,0,0,0,0,0,0,0,0,0,37,0,35,37,0,29,0,0,33,40
6,16410,3,KR4MFM,1.28,3,   boost,11.06,90635,930.48,27.66,25.33,52.7,4.19,4.2,4.11,18.76,0.4,0.57,-9.75,1.11,0,0.71,0.01,0.18,15.35,4.2,0,0,0,0,1,1,15,31.0423905,-103.5227535,947,2026,6,20,23,46,38,1,34,100,88,0.9,0.4,0.7,41,41,35,0,0,0,0,14,0,34,0,37,0,0,0,0,0,0,0,0,0,0,37,0,35,37,0,29,0,0,33,40
6,16410,3,KR4MFM,1.29,3,   boost,22.63,90627,931.21,28.39,25.47,52.7,4.19,4.2,4.11,25.43,0.59,0.49,-10.3,2.45,0.13,0.71,0.01,0.18,15.36,4.2,0,0,0,0,1,1,15,31.0423905,-103.5227535,947,2026,6,20,23,46,38,1,34,100,88,0.9,0.4,0.7,41,41,35,0,0,0,0,14,0,34,0,37,0,0,0,0,0,0,0,0,0,0,37,0,35,37,0,29,0,0,33,40
6,16410,3,KR4MFM,1.3,3,   boost,16.09,90627,931.21,28.39,25.6,52.7,4.18,4.2,4.11,34.11,0.85,0.26,-10.42,2.09,1.04,0.71,0,0.18,15.36,4.17,0,0,0,0,1,1,15,31.0423905,-103.5227535,947,2026,6,20,23,46,38,1,34,100,88,0.9,0.4,0.7,41,41,35,0,0,0,0,14,0,34,0,37,0,0,0,0,0,0,0,0,0,0,37,0,35,37,0,29,0,0,33,40
6,16410,3,KR4MFM,1.3,3,   boost,16.09,90627,931.21,28.39,25.6,52.7,4.18,4.2,4.11,34.11,0.85,0.26,-10.42,2.09,1.04,0.71,0,0.18,15.36,4.17,0,0,0,0,1,1,15,31.0423905,-103.5227535,947,2026,6,20,23,46,38,1,34,100,88,0.9,0.4,0.7,41,41,35,0,0,0,0,14,0,34,0,37,0,0,0,0,0,0,0,0,0,0,37,0,35,37,0,29,0,0,33,40
6,16410,3,KR4MFM,1.31,3,   boost,14.58,90626,931.3,28.48,25.73,52.7,4.18,4.2,4.11,25.76,0.62,0.47,-11.46,0.75,2.99,0.71,0,0.18,15.33,4.17,0,0,0,0,1,1,15,31.0423905,-103.5227535,947,2026,6,20,23,46,38,1,34,100,88,0.9,0.4,0.7,41,41,35,0,0,0,0,14,0,34,0,37,0,0,0,0,0,0,0,0,0,0,37,0,35,37,0,29,0,0,33,40
6,16410,3,KR4MFM,1.32,3,   boost,8.05,90626,931.3,28.48,25.85,52.7,4.18,4.2,4.11,20.6,0.6,0.68,-11.28,-0.54,2.75,0.71,0,0.18,15.31,4.17,0,0,0,0,1,1,15,31.0423905,-103.5227535,947,2026,6,20,23,46,38,1,34,100,88,0.9,0.4,0.7,41,41,35,0,0,0,0,14,0,34,0,37,0,0,0,0,0,0,0,0,0,0,37,0,35,37,0,29,0,0,33,40
6,16410,3,KR4MFM,1.33,3,   boost,7.54,90593,934.31,31.49,25.97,52.7,4.18,4.2,4.11,16.52,0.28,0.01,-11.46,0.56,2.08,0.71,0,0.18,15.29,4.17,0,0,0,0,1,1,15,31.0423905,-103.5227535,947,2026,6,20,23,46,38,1,34,100,88,0.9,0.4,0.7,41,41,35,0,0,0,0,14,0,34,0,37,0,0,0,0,0,0,0,0,0,0,37,0,35,37,0,29,0,0,33,40
6,16410,3,KR4MFM,1.34,3,   boost,12.07,90593,934.31,31.49,26.1,52.7,4.18,4.2,4.11,24.47,0.55,0.45,-10.85,1.84,0.86,0.71,0,0.17,15.29,4.17,0,0,0,0,1,1,15,31.0423905,-103.5227535,947,2026,6,20,23,46,38,1,34,100,88,0.9,0.4,0.7,41,41,35,0,0,0,0,14,0,34,0,37,0,0,0,0,0,0,0,0,0,0,37,0,35,37,0,29,0,0,33,40
6,16410,3,KR4MFM,1.35,3,   boost,22.13,90599,933.76,30.94,26.24,52.7,4.18,4.2,4.11,32.24,0.52,0.31,-11.7,1.97,2.02,0.71,0,0.18,15.28,4.17,0,0,0,0,1,1,15,31.0423905,-103.5227535,947,2026,6,20,23,46,38,1,34,100,88,0.9,0.4,0.7,41,41,35,0,0,0,0,14,0,34,0,37,0,0,0,0,0,0,0,0,0,0,37,0,35,37,0,29,0,0,33,40
6,16410,3,KR4MFM,1.36,3,   boost,20.62,90599,933.76,30.94,26.37,52.7,4.18,4.2,4.11,26.27,0.63,0.17,-11.89,0.26,3.67,0.71,0,0.18,15.24,4.17,0,0,0,0,1,1,15,31.0423905,-103.5227535,947,2026,6,20,23,46,38,1,34,100,88,0.9,0.4,0.7,41,41,35,0,0,0,0,14,0,34,0,37,0,0,0,0,0,0,0,0,0,0,37,0,35,37,0,29,0,0,33,40
6,16410,3,KR4MFM,1.37,3,   boost,13.58,90585,935.04,32.22,26.51,52.7,4.18,4.2,4.11,17.66,0.45,0.32,-12.43,0.38,3.85,0.71,0,0.18,15.21,4.17,0,0,0,0,1,1,15,31.0423905,-103.5227535,947,2026,6,20,23,46,38,1,34,100,88,0.9,0.4,0.7,41,41,35,0,0,0,0,14,0,34,0,37,0,0,0,0,0,0,0,0,0,0,37,0,35,37,0,29,0,0,33,40
6,16410,3,KR4MFM,1.38,3,   boost,6.03,90585,935.04,32.22,26.64,52.7,4.18,4.2,4.11,22.06,0.4,0.65,-12.8,-0.48,2.75,0.71,0,0.18,15.18,4.17,0,0,0,0,1,1,15,31.0423905,-103.5227535,947,2026,6,20,23,46,38,1,34,100,88,0.9,0.4,0.7,41,41,35,0,0,0,0,14,0,34,0,37,0,0,0,0,0,0,0,0,0,0,37,0,35,37,0,29,0,0,33,40
6,16410,3,KR4MFM,1.39,3,   boost,10.06,90579,935.59,32.76,26.76,52.7,4.18,4.2,4.11,29.13,0.51,0.54,-12.92,1.17,2.14,0.71,0,0.18,15.17,4.17,0,0,0,0,1,1,15,31.0423905,-103.5227535,947,2026,6,20,23,46,38,1,34,100,88,0.9,0.4,0.7,41,41,35,0,0,0,0,14,0,34,0,37,0,0,0,0,0,0,0,0,0,0,37,0,35,37,0,29,0,0,33,40
6,16410,3,KR4MFM,1.4,3,   boost,22.63,90579,935.59,32.76,26.88,52.7,4.18,4.2,4.11,30.9,0.62,0.4,-13.23,1.05,3.79,0.71,0,0.17,15.14,4.17,0,0,0,0,1,1,15,31.0423905,-103.5227535,947,2026,6,20,23,46,38,1,34,100,88,0.9,0.4,0.7,41,41,35,0,0,0,0,14,0,34,0,37,0,0,0,0,0,0,0,0,0,0,37,0,35,37,0,29,0,0,33,40
6,16410,3,KR4MFM,1.41,3,   boost,5.53,90582,935.31,32.49,27,52.7,4.18,4.2,4.11,20.08,0.52,0.17,-13.53,0.56,5.37,0.71,0,0.18,15.09,4.17,0,0,0,0,1,1,15,31.0423905,-103.5227535,947,2026,6,20,23,46,38,1,34,100,88,0.9,0.4,0.7,41,41,35,0,0,0,0,14,0,34,0,37,0,0,0,0,0,0,0,0,0,0,37,0,35,37,0,29,0,0,33,40
6,16410,3,KR4MFM,1.42,3,   boost,8.55,90582,935.31,32.49,27.13,52.7,4.18,4.2,4.11,18.38,0.35,0.21,-13.66,-0.6,4.34,0.71,0,0.18,15.05,4.17,0,0,0,0,1,1,15,31.0423905,-103.5227535,947,2026,6,20,23,46,38,1,34,100,88,0.9,0.4,0.7,41,41,35,0,0,0,0,14,0,34,0,37,0,0,0,0,0,0,0,0,0,0,37,0,35,37,0,29,0,0,33,40
6,16410,3,KR4MFM,1.43,3,   boost,18.61,90560,937.32,34.49,27.27,52.7,4.18,4.2,4.11,26.32,0.5,0.72,-13.84,-0.17,2.44,0.71,0,0.18,15.02,4.17,0,0,0,0,1,1,15,31.0423905,-103.5227535,947,2026,6,20,23,46,38,1,34,100,88,0.9,0.4,0.7,41,41,35,0,0,0,0,14,0,34,0,37,0,0,0,0,0,0,0,0,0,0,37,0,35,37,0,29,0,0,33,40
6,16410,3,KR4MFM,1.44,3,   boost,24.14,90560,937.32,34.49,27.41,52.7,4.18,4.2,4.11,30.63,0.57,0.11,-14.27,1.11,3.18,0.71,0,0.18,15,4.17,0,0,0,0,1,1,15,31.0423905,-103.5227535,947,2026,6,20,23,46,38,1,34,100,88,0.9,0.4,0.7,41,41,35,0,0,0,0,14,0,34,0,37,0,0,0,0,0,0,0,0,0,0,37,0,35,37,0,29,0,0,33,40
6,16410,3,KR4MFM,1.45,3,   boost,18.1,90563,937.04,34.22,27.56,52.7,4.18,4.2,4.11,26.49,0.57,0.04,-14.63,0.93,5.25,0.71,0,0.18,14.95,4.17,0,0,0,0,1,1,15,31.0423905,-103.5227535,947,2026,6,20,23,46,38,1,34,100,88,0.9,0.4,0.7,41,41,35,0,0,0,0,14,0,34,0,37,0,0,0,0,0,0,0,0,0,0,37,0,35,37,0,29,0,0,33,40
6,16410,3,KR4MFM,1.46,3,   boost,7.54,90563,937.04,34.22,27.69,52.7,4.18,4.2,4.11,17.75,0.29,0.37,-14.82,-1.15,6.53,0.71,0,0.18,14.89,4.17,0,0,0,0,1,1,15,31.0423905,-103.5227535,947,2026,6,20,23,46,38,1,34,100,88,0.9,0.4,0.7,41,41,35,0,0,0,0,14,0,34,0,37,0,0,0,0,0,0,0,0,0,0,37,0,35,37,0,29,0,0,33,40
6,16410,3,KR4MFM,1.47,3,   boost,8.05,90530,940.05,37.23,27.82,52.7,4.18,4.2,4.11,22.33,0.39,1.04,-15.43,-1.76,5.13,0.71,0,0.18,14.83,4.17,0,0,0,0,1,1,15,31.0423905,-103.5227535,947,2026,6,20,23,46,38,1,34,100,88,0.9,0.4,0.7,41,41,35,0,0,0,0,14,0,34,0,37,0,0,0,0,0,0,0,0,0,0,37,0,35,37,0,29,0,0,33,40
6,16410,3,KR4MFM,1.48,3,   boost,16.6,90530,940.05,37.23,27.95,52.7,4.18,4.2,4.11,28.95,0.5,0.68,-15.91,-0.9,4.34,0.71,-0.01,0.18,14.79,4.17,0,0,0,0,1,1,15,31.0423905,-103.5227535,947,2026,6,20,23,46,38,1,34,100,88,0.9,0.4,0.7,41,41,35,0,0,0,0,14,0,34,0,37,0,0,0,0,0,0,0,0,0,0,37,0,35,37,0,29,0,0,33,40
6,16410,3,KR4MFM,1.49,3,   boost,13.08,90523,940.69,37.87,28.08,52.7,4.18,4.2,4.11,32,0.75,0.14,-16.89,0.75,4.64,0.71,-0.01,0.18,14.75,4.17,0,0,0,0,1,1,15,31.0423905,-103.5227535,947,2026,6,20,23,46,38,1,34,100,88,0.9,0.4,0.7,41,41,35,0,0,0,0,14,0,34,0,37,0,0,0,0,0,0,0,0,0,0,37,0,35,37,0,29,0,0,33,40
6,16410,3,KR4MFM,1.5,3,   boost,17.1,90523,940.69,37.87,28.21,52.7,4.18,4.2,4.11,21.61,0.43,0.57,-17.38,-0.17,6.59,0.71,-0.01,0.18,14.69,4.17,0,0,0,0,1,1,15,31.0423905,-103.5227535,947,2026,6,20,23,46,38,1,34,100,88,0.9,0.4,0.7,41,41,35,0,0,0,0,14,0,34,0,37,0,0,0,0,0,0,0,0,0,0,37,0,35,37,0,29,0,0,33,40
6,16410,3,KR4MFM,1.51,3,   boost,15.59,90514,941.51,38.69,28.34,52.7,4.18,4.2,4.11,19.02,0.4,0.75,-17.68,-0.9,6.05,0.71,-0.01,0.18,14.63,4.17,0,0,0,0,1,1,15,31.0423905,-103.5227535,947,2026,6,20,23,46,38,1,34,100,88,0.9,0.4,0.7,41,41,35,0,0,0,0,14,0,34,0,37,0,0,0,0,0,0,0,0,0,0,37,0,35,37,0,29,0,0,33,40
6,16410,3,KR4MFM,1.52,3,   boost,10.56,90514,941.51,38.69,28.48,52.7,4.18,4.2,4.11,28.4,0.4,0.65,-18.6,-1.02,4.64,0.71,-0.01,0.18,14.58,4.17,0,0,0,0,1,1,15,31.0423905,-103.5227535,947,2026,6,20,23,46,38,1,34,100,88,0.9,0.4,0.7,41,41,35,0,0,0,0,14,0,34,0,37,0,0,0,0,0,0,0,0,0,0,37,0,35,37,0,29,0,0,33,40
6,16410,3,KR4MFM,1.53,3,   boost,12.07,90510,941.88,39.05,28.62,52.7,4.18,4.2,4.11,27.42,0.63,-0.19,-18.6,-0.41,4.58,0.71,-0.01,0.18,14.53,4.17,0,0,0,0,1,1,15,31.0423905,-103.5227535,947,2026,6,20,23,46,38,1,34,100,88,0.9,0.4,0.7,41,41,35,0,0,0,0,14,0,34,0,37,0,0,0,0,0,0,0,0,0,0,37,0,35,37,0,29,0,0,33,40
6,16410,3,KR4MFM,1.54,3,   boost,19.11,90510,941.88,39.05,28.76,52.7,4.18,4.2,4.11,23.33,0.45,-0.51,-19.58,0.2,6.17,0.71,-0.01,0.18,14.48,4.17,0,0,0,0,1,1,15,31.0423905,-103.5227535,947,2026,6,20,23,46,38,1,34,100,88,0.9,0.4,0.7,41,41,35,0,0,0,0,14,0,34,0,37,0,0,0,0,0,0,0,0,0,0,37,0,35,37,0,29,0,0,33,40
6,16410,3,KR4MFM,1.55,3,   boost,17.6,90506,942.24,39.42,28.9,52.7,4.18,4.2,4.11,16.09,0.13,0.21,-20.55,-0.9,7.82,0.71,-0.01,0.18,14.4,4.17,0,0,0,0,1,1,15,31.0423905,-103.5227535,947,2026,6,20,23,46,38,1,34,100,88,0.9,0.4,0.7,41,41,35,0,0,0,0,14,0,34,0,37,0,0,0,0,0,0,0,0,0,0,37,0,35,37,0,29,0,0,33,40
6,16410,3,KR4MFM,1.56,3,   boost,12.57,90506,942.24,39.42,29.04,52.7,4.18,4.2,4.11,24.62,0.19,1.26,-22.26,-1.88,6.41,0.71,-0.01,0.18,14.33,4.17,0,0,0,0,1,1,15,31.0423905,-103.5227535,947,2026,6,20,23,46,38,1,34,100,88,0.9,0.4,0.7,41,41,35,0,0,0,0,14,0,34,0,37,0,0,0,0,0,0,0,0,0,0,37,0,35,37,0,29,0,0,33,40
6,16410,3,KR4MFM,1.57,3,   boost,13.08,90472,945.34,42.52,29.19,52.7,4.18,4.2,4.11,34.54,0.5,1.11,-23.54,-1.88,5.07,0.71,-0.02,0.18,14.28,4.17,0,0,0,0,1,1,15,31.0423905,-103.5227535,947,2026,6,20,23,46,38,1,34,100,88,0.9,0.4,0.7,41,41,35,0,0,0,0,14,0,34,0,37,0,0,0,0,0,0,0,0,0,0,37,0,35,37,0,29,0,0,33,40
6,16410,3,KR4MFM,1.58,3,   boost,17.1,90472,945.34,42.52,29.33,52.7,4.18,4.2,4.11,23.34,0,0.83,-23.85,0.56,5.92,0.71,-0.02,0.18,14.23,4.17,0,0,0,0,1,1,15,31.0423905,-103.5227535,947,2026,6,20,23,46,38,1,34,100,88,0.9,0.4,0.7,41,41,35,0,0,0,0,14,0,34,0,37,0,0,0,0,0,0,0,0,0,0,37,0,35,37,0,29,0,0,33,40
6,16410,3,KR4MFM,1.59,3,   boost,18.1,90486,944.07,41.24,29.47,52.7,4.18,4.2,4.11,36.73,0.36,1,-23.79,0.26,7.39,0.71,-0.02,0.18,14.16,4.17,0,0,0,0,1,1,15,31.0423905,-103.5227535,947,2026,6,20,23,46,38,1,34,100,88,0.9,0.4,0.7,41,41,35,0,0,0,0,14,0,34,0,37,0,0,0,0,0,0,0,0,0,0,37,0,35,37,0,29,0,0,33,40
6,16410,3,KR4MFM,1.6,3,   boost,14.08,90486,944.07,41.24,29.6,52.7,4.18,4.2,4.11,25.86,0.52,1.08,-24.09,-1.39,7.94,0.71,-0.02,0.19,14.08,4.17,0,0,0,0,1,1,15,31.0423905,-103.5227535,947,2026,6,20,23,46,38,1,34,100,88,0.9,0.4,0.7,41,41,35,0,0,0,0,14,0,34,0,37,0,0,0,0,0,0,0,0,0,0,37,0,35,37,0,29,0,0,33,40
6,16410,3,KR4MFM,1.61,3,   boost,6.54,90456,946.8,43.98,29.73,52.7,4.18,4.2,4.11,19.44,0.68,0.51,-25.31,-3.47,6.84,0.71,-0.02,0.19,14,4.17,0,0,0,0,1,1,15,31.0423905,-103.5227535,947,2026,6,20,23,46,38,1,34,100,88,0.9,0.4,0.7,41,41,35,0,0,0,0,14,0,34,0,37,0,0,0,0,0,0,0,0,0,0,37,0,35,37,0,29,0,0,33,40
6,16410,3,KR4MFM,1.62,3,   boost,9.56,90456,946.8,43.98,29.87,52.7,4.19,4.19,4.11,17.65,0.4,-0.47,-28.24,-1.39,5.68,0.71,-0.03,0.19,13.94,4.2,0,0,0,0,1,1,15,31.0423905,-103.5227535,947,2026,6,20,23,46,38,1,34,100,88,0.9,0.4,0.7,41,41,35,0,0,0,0,14,0,34,0,37,0,0,0,0,0,0,0,0,0,0,37,0,35,37,0,29,0,0,33,40
6,16410,3,KR4MFM,1.62,3,   boost,9.56,90456,946.8,43.98,29.87,52.7,4.19,4.19,4.11,17.65,0.4,-0.47,-28.24,-1.39,5.68,0.71,-0.03,0.19,13.94,4.2,0,0,0,0,1,1,15,31.0423905,-103.5227535,947,2026,6,20,23,46,38,1,34,100,88,0.9,0.4,0.7,41,41,35,0,0,0,0,14,0,34,0,37,0,0,0,0,0,0,0,0,0,0,37,0,35,37,0,29,0,0,33,40
6,16410,3,KR4MFM,1.63,3,   boost,22.63,90471,945.44,42.61,30,52.7,4.19,4.19,4.11,24.1,0.39,-0.35,-30.5,-1.7,6.05,0.71,-0.03,0.19,13.88,4.2,0,0,0,0,1,1,15,31.0423905,-103.5227535,947,2026,6,20,23,46,38,1,34,100,88,0.9,0.4,0.7,41,41,35,0,0,0,0,14,0,34,0,37,0,0,0,0,0,0,0,0,0,0,37,0,35,37,0,29,0,0,33,40
6,16410,3,KR4MFM,1.64,3,   boost,20.12,90471,945.44,42.61,30.13,52.7,4.19,4.19,4.11,29.99,0.14,-0.14,-29.83,-0.29,7.45,0.71,-0.03,0.19,13.81,4.2,0,0,0,0,1,1,15,31.0423905,-103.5227535,947,2026,6,20,23,46,38,1,34,100,88,0.9,0.4,0.7,41,41,35,0,0,0,0,14,0,34,0,37,0,0,0,0,0,0,0,0,0,0,37,0,35,37,0,29,0,0,33,40
6,16410,3,KR4MFM,1.65,3,   boost,8.05,90446,947.72,44.89,30.27,52.7,4.19,4.19,4.11,22.03,0.11,0.54,-29.83,-2.12,8.3,0.71,-0.03,0.19,13.72,4.2,0,0,0,0,1,1,15,31.0423905,-103.5227535,947,2026,6,20,23,46,38,1,34,100,88,0.9,0.4,0.7,41,41,35,0,0,0,0,14,0,34,0,37,0,0,0,0,0,0,0,0,0,0,37,0,35,37,0,29,0,0,33,40
6,16410,3,KR4MFM,1.66,3,   boost,8.55,90446,947.72,44.89,30.41,52.7,4.19,4.19,4.11,18.67,0.27,0.63,-29.71,-1.82,6.23,0.71,-0.03,0.19,13.66,4.2,0,0,0,0,1,1,15,31.0423905,-103.5227535,947,2026,6,20,23,46,38,1,34,100,88,0.9,0.4,0.7,41,41,35,0,0,0,0,14,0,34,0,37,0,0,0,0,0,0,0,0,0,0,37,0,35,37,0,29,0,0,33,40
6,16410,3,KR4MFM,1.67,3,   boost,18.1,90437,948.54,45.71,30.55,52.7,4.19,4.19,4.11,28.15,0.55,1.02,-30.99,-2.12,5.68,0.72,-0.03,0.19,13.6,4.2,0,0,0,0,1,1,15,31.0423905,-103.5227535,947,2026,6,20,23,46,38,1,34,100,88,0.9,0.4,0.7,41,41,35,0,0,0,0,14,0,34,0,37,0,0,0,0,0,0,0,0,0,0,37,0,35,37,0,29,0,0,33,40
6,16410,3,KR4MFM,1.68,3,   boost,20.12,90437,948.54,45.71,30.69,52.7,4.19,4.19,4.11,31.49,0.66,0.19,-33.31,-0.78,6.9,0.71,-0.03,0.19,13.53,4.2,0,0,0,0,1,1,15,31.0423905,-103.5227535,947,2026,6,20,23,46,38,1,34,100,88,0.9,0.4,0.7,41,41,35,0,0,0,0,14,0,34,0,37,0,0,0,0,0,0,0,0,0,0,37,0,35,37,0,29,0,0,33,40
6,16410,3,KR4MFM,1.69,3,   boost,16.09,90421,950,47.17,30.83,52.7,4.19,4.19,4.11,20.71,0.36,-0.4,-34.04,-0.96,7.88,0.71,-0.03,0.19,13.45,4.2,0,0,0,0,1,1,15,31.0423905,-103.5227535,947,2026,6,20,23,46,38,1,34,100,88,0.9,0.4,0.7,41,41,35,0,0,0,0,14,0,34,0,37,0,0,0,0,0,0,0,0,0,0,37,0,35,37,0,29,0,0,33,40
6,16410,3,KR4MFM,1.7,3,   boost,9.05,90421,950,47.17,30.96,52.7,4.19,4.19,4.11,15.86,0.12,-0.17,-33.68,-2.06,6.29,0.72,-0.04,0.19,13.39,4.2,0,0,0,0,1,1,15,31.0423905,-103.5227535,947,2026,6,20,23,46,38,1,34,100,88,0.9,0.4,0.7,41,41,35,0,0,0,0,14,0,34,0,37,0,0,0,0,0,0,0,0,0,0,37,0,35,37,0,29,0,0,33,40
6,16410,3,KR4MFM,1.71,3,   boost,12.57,90397,952.19,49.37,31.09,52.7,4.19,4.19,4.11,24.26,-0.05,0.38,-34.04,-0.78,8.06,0.72,-0.04,0.19,13.31,4.2,0,0,0,0,1,1,15,31.0423905,-103.5227535,947,2026,6,20,23,46,38,1,34,100,88,0.9,0.4,0.7,41,41,35,0,0,0,0,14,0,34,0,37,0,0,0,0,0,0,0,0,0,0,37,0,35,37,0,29,0,0,33,40
6,16410,3,KR4MFM,1.72,3,   boost,13.08,90397,952.19,49.37,31.22,52.7,4.19,4.19,4.11,29.72,0.25,0.27,-35.2,-2.31,8.36,0.71,-0.04,0.19,13.22,4.2,0,0,0,0,1,1,15,31.0423905,-103.5227535,947,2026,6,20,23,46,38,1,34,100,88,0.9,0.4,0.7,41,41,35,0,0,0,0,14,0,34,0,37,0,0,0,0,0,0,0,0,0,0,37,0,35,37,0,29,0,0,33,40
6,16410,3,KR4MFM,1.73,3,   boost,11.06,90403,951.64,48.82,31.34,52.7,4.19,4.19,4.11,26.92,0.34,0.14,-35.2,-2.37,6.05,0.71,-0.04,0.19,13.16,4.2,0,0,0,0,1,1,15,31.0423905,-103.5227535,947,2026,6,20,23,46,38,1,34,100,88,0.9,0.4,0.7,41,41,35,0,0,0,0,14,0,34,0,37,0,0,0,0,0,0,0,0,0,0,37,0,35,37,0,29,0,0,33,40
6,16410,3,KR4MFM,1.74,3,   boost,13.08,90403,951.64,48.82,31.48,52.7,4.19,4.19,4.11,19.1,0.34,0.36,-35.63,-1.88,5.25,0.71,-0.05,0.19,13.1,4.2,0,0,0,0,1,1,15,31.0423905,-103.5227535,947,2026,6,20,23,46,38,1,34,100,88,0.9,0.4,0.7,41,41,35,0,0,0,0,14,0,34,0,37,0,0,0,0,0,0,0,0,0,0,37,0,35,37,0,29,0,0,33,40
6,16410,3,KR4MFM,1.75,3,   boost,20.12,90395,952.37,49.55,31.62,52.7,4.19,4.19,4.11,23.22,0.22,0.98,-36.3,-0.29,6.29,0.71,-0.05,0.19,13.04,4.2,0,0,0,0,1,1,15,31.0423905,-103.5227535,947,2026,6,20,23,46,38,1,34,100,88,0.9,0.4,0.7,41,41,35,0,0,0,0,14,0,34,0,37,0,0,0,0,0,0,0,0,0,0,37,0,35,37,0,29,0,0,33,40
6,16410,3,KR4MFM,1.76,3,   boost,18.61,90395,952.37,49.55,31.76,52.7,4.19,4.19,4.11,31.32,0.41,0.91,-35.93,-1.21,8.3,0.71,-0.05,0.19,12.95,4.2,0,0,0,0,1,1,15,31.0423905,-103.5227535,947,2026,6,20,23,46,38,1,34,100,88,0.9,0.4,0.7,41,41,35,0,0,0,0,14,0,34,0,37,0,0,0,0,0,0,0,0,0,0,37,0,35,37,0,29,0,0,33,40
6,16410,3,KR4MFM,1.77,3,   boost,12.57,90402,951.73,48.91,31.9,52.7,4.19,4.19,4.11,27.75,0.44,-0.04,-36.3,-2.31,7.08,0.71,-0.05,0.19,12.88,4.2,0,0,0,0,1,1,15,31.0423905,-103.5227535,947,2026,6,20,23,46,38,1,34,100,88,0.9,0.4,0.7,41,41,35,0,0,0,0,14,0,34,0,37,0,0,0,0,0,0,0,0,0,0,37,0,35,37,0,29,0,0,33,40
6,16410,3,KR4MFM,1.78,3,   boost,7.04,90402,951.73,48.91,32.04,52.7,4.19,4.19,4.11,17.57,0.2,-0.25,-36.24,-2.79,5.5,0.72,-0.05,0.19,12.82,4.2,0,0,0,0,1,1,15,31.0423905,-103.5227535,947,2026,6,20,23,46,38,1,34,100,88,0.9,0.4,0.7,41,41,35,0,0,0,0,14,0,34,0,37,0,0,0,0,0,0,0,0,0,0,37,0,35,37,0,29,0,0,33,40
6,16410,3,KR4MFM,1.79,3,   boost,13.08,90357,955.84,53.02,32.18,52.7,4.19,4.19,4.11,20.09,0.07,0.26,-37.34,-1.51,5.92,0.71,-0.05,0.19,12.76,4.2,0,0,0,0,1,1,15,31.0423905,-103.5227535,947,2026,6,20,23,46,38,1,34,100,88,0.9,0.4,0.7,41,41,35,0,0,0,0,14,0,34,0,37,0,0,0,0,0,0,0,0,0,0,37,0,35,37,0,29,0,0,33,40
6,16410,3,KR4MFM,1.8,3,   boost,23.13,90357,955.84,53.02,32.32,52.7,4.19,4.19,4.11,31.38,0.11,0.96,-37.58,-0.6,7.88,0.71,-0.05,0.19,12.68,4.2,0,0,0,0,1,1,15,31.0423905,-103.5227535,947,2026,6,20,23,46,38,1,34,100,88,0.9,0.4,0.7,41,41,35,0,0,0,0,14,0,34,0,37,0,0,0,0,0,0,0,0,0,0,37,0,35,37,0,29,0,0,33,40
6,16410,3,KR4MFM,1.81,3,   boost,19.61,90378,953.92,51.1,32.47,52.7,4.19,4.19,4.11,27.72,0.3,0.11,-37.64,-1.94,7.39,0.72,-0.06,0.19,12.6,4.2,0,0,0,0,1,1,15,31.0423905,-103.5227535,947,2026,6,20,23,46,38,1,34,100,88,0.9,0.4,0.7,41,41,35,0,0,0,0,14,0,34,0,37,0,0,0,0,0,0,0,0,0,0,37,0,35,37,0,29,0,0,33,40
6,16410,3,KR4MFM,1.82,3,   boost,10.56,90378,953.92,51.1,32.62,52.7,4.19,4.19,4.11,18.09,0.27,-0.18,-36.6,-2.79,5.19,0.72,-0.06,0.19,12.55,4.2,0,0,0,0,1,1,15,31.0423905,-103.5227535,947,2026,6,20,23,46,38,1,34,100,88,0.9,0.4,0.7,41,41,35,0,0,0,0,14,0,34,0,37,0,0,0,0,0,0,0,0,0,0,37,0,35,37,0,29,0,0,33,40
6,16410,3,KR4MFM,1.83,3,   boost,8.55,90353,956.21,53.38,32.78,52.7,4.19,4.19,4.11,18.44,0.11,0.11,-36.54,-1.76,5.01,0.71,-0.06,0.2,12.5,4.2,0,0,0,0,1,1,15,31.0423905,-103.5227535,947,2026,6,20,23,46,38,1,34,100,88,0.9,0.4,0.7,41,41,35,0,0,0,0,14,0,34,0,37,0,0,0,0,0,0,0,0,0,0,37,0,35,37,0,29,0,0,33,40
6,16410,3,KR4MFM,1.84,3,   boost,21.62,90353,956.21,53.38,32.94,52.7,4.19,4.19,4.11,30.47,0.07,0.98,-36.06,-0.72,6.84,0.71,-0.06,0.2,12.43,4.2,0,0,0,0,1,1,15,31.0423905,-103.5227535,947,2026,6,20,23,46,38,1,34,100,88,0.9,0.4,0.7,41,41,35,0,0,0,0,14,0,34,0,37,0,0,0,0,0,0,0,0,0,0,37,0,35,37,0,29,0,0,33,40
6,16410,3,KR4MFM,1.85,3,   boost,28.16,90344,957.03,54.21,33.1,52.7,4.19,4.19,4.11,25.62,0.21,0.15,-35.51,-1.39,7.63,0.71,-0.07,0.2,12.35,4.2,0,0,0,0,1,1,15,31.0423905,-103.5227535,947,2026,6,20,23,46,38,1,34,100,88,0.9,0.4,0.7,41,41,35,0,0,0,0,14,0,34,0,37,0,0,0,0,0,0,0,0,0,0,37,0,35,37,0,29,0,0,33,40
6,16410,3,KR4MFM,1.86,3,   boost,13.58,90344,957.03,54.21,33.25,52.7,4.19,4.19,4.11,16.16,0.09,-0.83,-33.98,-3.1,5.37,0.71,-0.07,0.2,12.29,4.2,0,0,0,0,1,1,15,31.0423905,-103.5227535,947,2026,6,20,23,46,38,1,34,100,88,0.9,0.4,0.7,41,41,35,0,0,0,0,14,0,34,0,37,0,0,0,0,0,0,0,0,0,0,37,0,35,37,0,29,0,0,33,40
6,16410,3,KR4MFM,1.87,3,   boost,-0.5,90304,960.68,57.86,33.4,52.7,4.19,4.19,4.11,19.74,-0.08,-0.34,-33.43,-2.79,5.13,0.71,-0.07,0.2,12.24,4.2,0,0,0,0,1,1,15,31.0423905,-103.5227535,947,2026,6,20,23,46,38,1,34,100,88,0.9,0.4,0.7,41,41,35,0,0,0,0,14,0,34,0,37,0,0,0,0,0,0,0,0,0,0,37,0,35,37,0,29,0,0,33,40
6,16410,3,KR4MFM,1.88,3,   boost,26.65,90304,960.68,57.86,33.54,52.7,4.19,4.19,4.11,29.81,-0.02,1.06,-33.06,-0.78,6.23,0.71,-0.07,0.2,12.17,4.2,0,0,0,0,1,1,15,31.0423905,-103.5227535,947,2026,6,20,23,46,38,1,34,100,88,0.9,0.4,0.7,41,41,35,0,0,0,0,14,0,34,0,37,0,0,0,0,0,0,0,0,0,0,37,0,35,37,0,29,0,0,33,40
6,16410,3,KR4MFM,1.89,3,   boost,16.6,90333,958.03,55.21,33.66,52.7,4.19,4.19,4.11,29.94,0.24,1,-30.93,-0.6,6.47,0.72,-0.07,0.2,12.11,4.2,0,0,0,0,1,1,15,31.0423905,-103.5227535,947,2026,6,20,23,46,38,1,34,100,88,0.9,0.4,0.7,41,41,35,0,0,0,0,14,0,34,0,37,0,0,0,0,0,0,0,0,0,0,37,0,35,37,0,29,0,0,33,40
6,16410,3,KR4MFM,1.9,3,   boost,1.01,90333,958.03,55.21,33.77,52.7,4.19,4.19,4.11,20.91,0.22,0.47,-29.16,-2.12,3.97,0.71,-0.07,0.2,12.07,4.2,0,0,0,0,1,1,15,31.0423905,-103.5227535,947,2026,6,20,23,46,38,1,34,100,88,0.9,0.4,0.7,41,41,35,0,0,0,0,14,0,34,0,37,0,0,0,0,0,0,0,0,0,0,37,0,35,37,0,29,0,0,33,40
6,16410,3,KR4MFM,1.91,3,   boost,2.51,90292,961.78,58.96,33.88,52.7,4.19,4.19,4.11,22.17,0.31,0.76,-28,-2.12,3.6,0.71,-0.07,0.2,12.03,4.2,0,0,0,0,1,1,15,31.0423905,-103.5227535,947,2026,6,20,23,46,38,1,34,100,88,0.9,0.4,0.7,41,41,35,0,0,0,0,14,0,34,0,37,0,0,0,0,0,0,0,0,0,0,37,0,35,37,0,29,0,0,33,40
6,16410,3,KR4MFM,1.92,3,   boost,21.62,90292,961.78,58.96,33.99,52.7,4.19,4.19,4.11,30.43,0.33,0.74,-28.12,-0.9,5.25,0.72,-0.07,0.2,11.97,4.2,0,0,0,0,1,1,15,31.0423905,-103.5227535,947,2026,6,20,23,46,38,1,34,100,88,0.9,0.4,0.7,41,41,35,0,0,0,0,14,0,34,0,37,0,0,0,0,0,0,0,0,0,0,37,0,35,37,0,29,0,0,33,40
6,16410,3,KR4MFM,1.92,3,   boost,21.62,90292,961.78,58.96,33.99,52.7,4.19,4.19,4.11,30.43,0.33,0.74,-28.12,-0.9,5.25,0.72,-0.07,0.2,11.97,4.2,0,0,0,0,1,1,15,31.0423905,-103.5227535,947,2026,6,20,23,46,38,1,34,100,88,0.9,0.4,0.7,41,41,35,0,0,0,0,14,0,34,0,37,0,0,0,0,0,0,0,0,0,0,37,0,35,37,0,29,0,0,33,40
6,16410,3,KR4MFM,1.92,3,   boost,21.62,90292,961.78,58.96,33.99,52.7,4.19,4.19,4.11,30.43,0.33,0.74,-28.12,-0.9,5.25,0.72,-0.07,0.2,11.97,4.2,0,0,0,0,1,1,15,31.0423905,-103.5227535,947,2026,6,20,23,46,38,1,34,100,88,0.9,0.4,0.7,41,41,35,0,0,0,0,14,0,34,0,37,0,0,0,0,0,0,0,0,0,0,37,0,35,37,0,29,0,0,33,40
6,16410,3,KR4MFM,1.93,3,   boost,18.61,90302,960.87,58.04,34.11,52.7,4.19,4.19,4.11,27.79,0.37,-0.42,-28.43,-1.94,6.84,0.72,-0.08,0.2,11.9,4.2,0,0,0,0,1,1,15,31.0423706,-103.5226904,996,2026,6,20,23,46,39,8,83,108,85,0.9,0.5,0.7,39,41,35,0,0,0,0,13,0,34,0,37,0,0,0,0,0,0,0,0,0,0,37,0,34,37,0,34,0,0,34,42
6,16410,3,KR4MFM,1.94,3,   boost,7.54,90302,960.87,58.04,34.22,52.7,4.2,4.19,4.11,16.74,0.03,-0.43,-28.73,-2.92,4.46,0.71,-0.08,0.2,11.85,4.2,0,0,0,0,1,1,15,31.0423706,-103.5226904,996,2026,6,20,23,46,39,8,83,108,85,0.9,0.5,0.7,39,41,35,0,0,0,0,13,0,34,0,37,0,0,0,0,0,0,0,0,0,0,37,0,34,37,0,34,0,0,34,42
6,16410,3,KR4MFM,1.94,3,   boost,7.54,90302,960.87,58.04,34.22,52.7,4.2,4.19,4.11,16.74,0.03,-0.43,-28.73,-2.92,4.46,0.71,-0.08,0.2,11.85,4.2,0,0,0,0,1,1,15,31.0423706,-103.5226904,996,2026,6,20,23,46,39,8,83,108,85,0.9,0.5,0.7,39,41,35,0,0,0,0,13,0,34,0,37,0,0,0,0,0,0,0,0,0,0,37,0,34,37,0,34,0,0,34,42
6,16410,3,KR4MFM,1.95,3,   boost,4.53,90264,964.34,61.52,34.35,52.7,4.2,4.19,4.11,20.43,-0.05,0.4,-29.52,-3.28,3.05,0.71,-0.08,0.2,11.82,4.2,0,0,0,0,1,1,15,31.0423706,-103.5226904,996,2026,6,20,23,46,39,8,83,108,85,0.9,0.5,0.7,39,41,35,0,0,0,0,13,0,34,0,37,0,0,0,0,0,0,0,0,0,0,37,0,34,37,0,34,0,0,34,42
6,16410,3,KR4MFM,1.96,3,   boost,19.11,90264,964.34,61.52,34.48,52.7,4.2,4.19,4.11,29.93,0.05,0.93,-29.77,-1.21,4.03,0.71,-0.08,0.2,11.78,4.2,0,0,0,0,1,1,15,31.0423706,-103.5226904,996,2026,6,20,23,46,39,8,83,108,85,0.9,0.5,0.7,39,41,35,0,0,0,0,13,0,34,0,37,0,0,0,0,0,0,0,0,0,0,37,0,34,37,0,34,0,0,34,42
6,16410,3,KR4MFM,1.97,3,   boost,18.1,90277,963.15,60.33,34.61,52.7,4.2,4.19,4.11,28.95,0.35,0.24,-29.1,-1.02,4.89,0.71,-0.08,0.2,11.73,4.2,0,0,0,0,1,1,15,31.0423706,-103.5226904,996,2026,6,20,23,46,39,8,83,108,85,0.9,0.5,0.7,39,41,35,0,0,0,0,13,0,34,0,37,0,0,0,0,0,0,0,0,0,0,37,0,34,37,0,34,0,0,34,42
6,16410,3,KR4MFM,1.98,3,   boost,12.57,90277,963.15,60.33,34.74,52.7,4.2,4.19,4.11,18.18,0.22,-0.17,-29.71,-2.12,3.18,0.71,-0.09,0.2,11.69,4.2,0,0,0,0,1,1,15,31.0423706,-103.5226904,996,2026,6,20,23,46,39,8,83,108,85,0.9,0.5,0.7,39,41,35,0,0,0,0,13,0,34,0,37,0,0,0,0,0,0,0,0,0,0,37,0,34,37,0,34,0,0,34,42
6,16410,3,KR4MFM,1.99,3,   boost,11.06,90247,965.89,63.07,34.89,52.7,4.2,4.19,4.11,21.89,0.15,0.5,-30.2,-2.86,1.47,0.71,-0.09,0.2,11.68,4.2,0,0,0,0,1,1,15,31.0423706,-103.5226904,996,2026,6,20,23,46,39,8,83,108,85,0.9,0.5,0.7,39,41,35,0,0,0,0,13,0,34,0,37,0,0,0,0,0,0,0,0,0,0,37,0,34,37,0,34,0,0,34,42
6,16410,3,KR4MFM,2,3,   boost,17.1,90247,965.89,63.07,35.04,52.7,4.2,4.19,4.11,31.25,0.19,0.86,-30.81,-1.33,2.63,0.72,-0.09,0.2,11.65,4.2,0,0,0,0,1,1,15,31.0423706,-103.5226904,996,2026,6,20,23,46,39,8,83,108,85,0.9,0.5,0.7,39,41,35,0,0,0,0,13,0,34,0,37,0,0,0,0,0,0,0,0,0,0,37,0,34,37,0,34,0,0,34,42
6,16410,3,KR4MFM,2.01,3,   boost,19.11,90242,966.35,63.53,35.19,52.7,4.2,4.19,4.11,25.23,0.22,0.14,-30.07,-1.09,3.73,0.71,-0.09,0.2,11.61,4.2,0,0,0,0,1,1,15,31.0423706,-103.5226904,996,2026,6,20,23,46,39,8,83,108,85,0.9,0.5,0.7,39,41,35,0,0,0,0,13,0,34,0,37,0,0,0,0,0,0,0,0,0,0,37,0,34,37,0,34,0,0,34,42
6,16410,3,KR4MFM,2.02,3,   boost,11.57,90242,966.35,63.53,35.35,52.7,4.2,4.19,4.11,15.63,0.04,-0.52,-28.98,-1.39,2.14,0.71,-0.09,0.2,11.59,4.2,0,0,0,0,1,1,15,31.0423706,-103.5226904,996,2026,6,20,23,46,39,8,83,108,85,0.9,0.5,0.7,39,41,35,0,0,0,0,13,0,34,0,37,0,0,0,0,0,0,0,0,0,0,37,0,34,37,0,34,0,0,34,42
6,16410,3,KR4MFM,2.03,3,   boost,24.64,90236,966.9,64.08,35.51,52.7,4.2,4.19,4.11,25.42,0.04,0.46,-28.37,-2.37,0.43,0.72,-0.09,0.2,11.58,4.2,0,0,0,0,1,1,15,31.0423706,-103.5226904,996,2026,6,20,23,46,39,8,83,108,85,0.9,0.5,0.7,39,41,35,0,0,0,0,13,0,34,0,37,0,0,0,0,0,0,0,0,0,0,37,0,34,37,0,34,0,0,34,42
6,16410,3,KR4MFM,2.04,3,   boost,20.62,90236,966.9,64.08,35.67,52.7,4.2,4.19,4.11,29.88,0.02,0.68,-27.63,-0.6,1.59,0.72,-0.09,0.2,11.57,4.2,0,0,0,0,1,1,15,31.0423706,-103.5226904,996,2026,6,20,23,46,39,8,83,108,85,0.9,0.5,0.7,39,41,35,0,0,0,0,13,0,34,0,37,0,0,0,0,0,0,0,0,0,0,37,0,34,37,0,34,0,0,34,42
6,16410,3,KR4MFM,2.05,3,   boost,6.54,90240,966.53,63.71,35.82,52.7,4.2,4.19,4.11,20.5,0.05,0.52,-27.14,0.81,1.71,0.71,-0.09,0.21,11.55,4.2,0,0,0,0,1,1,15,31.0423706,-103.5226904,996,2026,6,20,23,46,39,8,83,108,85,0.9,0.5,0.7,39,41,35,0,0,0,0,13,0,34,0,37,0,0,0,0,0,0,0,0,0,0,37,0,34,37,0,34,0,0,34,42
6,16410,3,KR4MFM,2.06,3,   boost,7.04,90240,966.53,63.71,35.98,52.7,4.2,4.19,4.11,18.54,0.2,0.01,-27.69,-0.72,-0.12,0.71,-0.1,0.21,11.55,4.2,0,0,0,0,1,1,15,31.0423706,-103.5226904,996,2026,6,20,23,46,39,8,83,108,85,0.9,0.5,0.7,39,41,35,0,0,0,0,13,0,34,0,37,0,0,0,0,0,0,0,0,0,0,37,0,34,37,0,34,0,0,34,42
6,16410,3,KR4MFM,2.07,3,   boost,21.62,90195,970.65,67.83,36.13,52.7,4.2,4.19,4.11,31.35,0.29,0.64,-29.28,-1.57,-1.28,0.71,-0.1,0.2,11.56,4.2,0,0,0,0,1,1,15,31.0423706,-103.5226904,996,2026,6,20,23,46,39,8,83,108,85,0.9,0.5,0.7,39,41,35,0,0,0,0,13,0,34,0,37,0,0,0,0,0,0,0,0,0,0,37,0,34,37,0,34,0,0,34,42
6,16410,3,KR4MFM,2.08,3,   boost,29.67,90195,970.65,67.83,36.29,52.7,4.2,4.19,4.11,24.81,0.21,-0.17,-31.29,-0.48,0.61,0.71,-0.1,0.21,11.56,4.2,0,0,0,0,1,1,15,31.0423706,-103.5226904,996,2026,6,20,23,46,39,8,83,108,85,0.9,0.5,0.7,39,41,35,0,0,0,0,13,0,34,0,37,0,0,0,0,0,0,0,0,0,0,37,0,34,37,0,34,0,0,34,42
6,16410,3,KR4MFM,2.09,3,   boost,15.09,90221,968.27,65.45,36.45,52.7,4.2,4.19,4.11,14.78,0.02,-0.77,-31.91,0.68,0.43,0.71,-0.1,0.21,11.55,4.2,0,0,0,0,1,1,15,31.0423706,-103.5226904,996,2026,6,20,23,46,39,8,83,108,85,0.9,0.5,0.7,39,41,35,0,0,0,0,13,0,34,0,37,0,0,0,0,0,0,0,0,0,0,37,0,34,37,0,34,0,0,34,42
6,16410,3,KR4MFM,2.1,3,   boost,3.52,90221,968.27,65.45,36.61,52.7,4.2,4.19,4.11,23.31,0.37,0.28,-32.27,-1.15,-1.46,0.71,-0.1,0.21,11.57,4.2,0,0,0,0,1,1,15,31.0423706,-103.5226904,996,2026,6,20,23,46,39,8,83,108,85,0.9,0.5,0.7,39,41,35,0,0,0,0,13,0,34,0,37,0,0,0,0,0,0,0,0,0,0,37,0,34,37,0,34,0,0,34,42
6,16410,3,KR4MFM,2.11,3,   boost,17.6,90173,972.66,69.84,36.77,52.7,4.2,4.19,4.11,17.27,0.23,-0.76,-32.7,-0.9,-2.5,0.72,-0.1,0.2,11.59,4.2,0,0,0,0,1,1,15,31.0423706,-103.5226904,996,2026,6,20,23,46,39,8,83,108,85,0.9,0.5,0.7,39,41,35,0,0,0,0,13,0,34,0,37,0,0,0,0,0,0,0,0,0,0,37,0,34,37,0,34,0,0,34,42
6,16410,3,KR4MFM,2.12,3,   boost,23.13,90173,972.66,69.84,36.92,52.7,4.2,4.19,4.11,27.76,0.15,0.7,-33.74,0.13,-0.18,0.72,-0.1,0.2,11.59,4.2,0,0,0,0,1,1,15,31.0423706,-103.5226904,996,2026,6,20,23,46,39,8,83,108,85,0.9,0.5,0.7,39,41,35,0,0,0,0,13,0,34,0,37,0,0,0,0,0,0,0,0,0,0,37,0,34,37,0,34,0,0,34,42
6,16410,3,KR4MFM,2.13,3,   boost,17.6,90184,971.66,68.83,37.07,52.7,4.2,4.19,4.11,30.53,-0.02,1.01,-35.14,0.32,-1.46,0.72,-0.1,0.2,11.61,4.2,0,0,0,0,1,1,15,31.0423706,-103.5226904,996,2026,6,20,23,46,39,8,83,108,85,0.9,0.5,0.7,39,41,35,0,0,0,0,13,0,34,0,37,0,0,0,0,0,0,0,0,0,0,37,0,34,37,0,34,0,0,34,42
6,16410,3,KR4MFM,2.14,3,   boost,8.05,90184,971.66,68.83,37.21,52.7,4.2,4.19,4.11,20.78,0.17,0.48,-36.91,-1.39,-2.87,0.72,-0.1,0.2,11.64,4.2,0,0,0,0,1,1,15,31.0423706,-103.5226904,996,2026,6,20,23,46,39,8,83,108,85,0.9,0.5,0.7,39,41,35,0,0,0,0,13,0,34,0,37,0,0,0,0,0,0,0,0,0,0,37,0,34,37,0,34,0,0,34,42
6,16410,3,KR4MFM,2.15,3,   boost,9.56,90150,974.77,71.94,37.34,52.7,4.2,4.19,4.11,19.11,0.09,-0.26,-37.64,-0.84,-3.6,0.71,-0.11,0.2,11.67,4.2,0,0,0,0,1,1,15,31.0423706,-103.5226904,996,2026,6,20,23,46,39,8,83,108,85,0.9,0.5,0.7,39,41,35,0,0,0,0,13,0,34,0,37,0,0,0,0,0,0,0,0,0,0,37,0,34,37,0,34,0,0,34,42
6,16410,3,KR4MFM,2.16,3,   boost,22.13,90150,974.77,71.94,37.47,52.7,4.2,4.19,4.11,28.27,0.3,0.91,-39.47,-0.29,-1.52,0.71,-0.11,0.21,11.69,4.2,0,0,0,0,1,1,15,31.0423706,-103.5226904,996,2026,6,20,23,46,39,8,83,108,85,0.9,0.5,0.7,39,41,35,0,0,0,0,13,0,34,0,37,0,0,0,0,0,0,0,0,0,0,37,0,34,37,0,34,0,0,34,42
6,16410,3,KR4MFM,2.17,3,   boost,9.56,90155,974.31,71.48,37.6,52.7,4.2,4.19,4.11,32.8,0.19,0.58,-40.08,-0.17,-2.26,0.71,-0.11,0.21,11.71,4.2,0,0,0,0,1,1,15,31.0423706,-103.5226904,996,2026,6,20,23,46,39,8,83,108,85,0.9,0.5,0.7,39,41,35,0,0,0,0,13,0,34,0,37,0,0,0,0,0,0,0,0,0,0,37,0,34,37,0,34,0,0,34,42
6,16410,3,KR4MFM,2.18,3,   boost,5.03,90155,974.31,71.48,37.72,52.7,4.2,4.19,4.11,20.86,0.19,0.75,-42.22,-1.64,-4.03,0.71,-0.11,0.21,11.75,4.2,0,0,0,0,1,1,15,31.0423706,-103.5226904,996,2026,6,20,23,46,39,8,83,108,85,0.9,0.5,0.7,39,41,35,0,0,0,0,13,0,34,0,37,0,0,0,0,0,0,0,0,0,0,37,0,34,37,0,34,0,0,34,42
6,16410,3,KR4MFM,2.19,3,   boost,26.15,90142,975.5,72.67,37.84,52.7,4.2,4.19,4.11,18.73,0.21,0.11,-43.26,-1.27,-4.45,0.71,-0.11,0.21,11.79,4.2,0,0,0,0,1,1,15,31.0423706,-103.5226904,996,2026,6,20,23,46,39,8,83,108,85,0.9,0.5,0.7,39,41,35,0,0,0,0,13,0,34,0,37,0,0,0,0,0,0,0,0,0,0,37,0,34,37,0,34,0,0,34,42
6,16410,3,KR4MFM,2.2,3,   boost,8.55,90142,975.5,72.67,37.95,52.7,4.2,4.19,4.11,28.38,0.22,0.31,-43.56,0.38,-2.87,0.71,-0.11,0.21,11.82,4.2,0,0,0,0,1,1,15,31.0423706,-103.5226904,996,2026,6,20,23,46,39,8,83,108,85,0.9,0.5,0.7,39,41,35,0,0,0,0,13,0,34,0,37,0,0,0,0,0,0,0,0,0,0,37,0,34,37,0,34,0,0,34,42
6,16410,3,KR4MFM,2.21,3,   boost,-1.51,90146,975.13,72.31,38.08,52.7,4.2,4.19,4.11,22.3,0.15,-0.76,-42.77,-1.15,-2.87,0.71,-0.11,0.21,11.85,4.2,0,0,0,0,1,1,15,31.0423706,-103.5226904,996,2026,6,20,23,46,39,8,83,108,85,0.9,0.5,0.7,39,41,35,0,0,0,0,13,0,34,0,37,0,0,0,0,0,0,0,0,0,0,37,0,34,37,0,34,0,0,34,42
6,16410,3,KR4MFM,2.22,3,   boost,11.06,90146,975.13,72.31,38.21,52.7,4.2,4.19,4.11,13.61,-0.14,-1.02,-43.81,-2.12,-5.37,0.72,-0.12,0.21,11.91,4.2,0,0,0,0,1,1,15,31.0423706,-103.5226904,996,2026,6,20,23,46,39,8,83,108,85,0.9,0.5,0.7,39,41,35,0,0,0,0,13,0,34,0,37,0,0,0,0,0,0,0,0,0,0,37,0,34,37,0,34,0,0,34,42
6,16410,3,KR4MFM,2.23,3,   boost,31.68,90109,978.52,75.69,38.37,52.7,4.2,4.19,4.11,20.6,-0.27,-0.03,-45.03,-1.64,-5.98,0.72,-0.12,0.21,11.97,4.2,0,0,0,0,1,1,15,31.0423706,-103.5226904,996,2026,6,20,23,46,39,8,83,108,85,0.9,0.5,0.7,39,41,35,0,0,0,0,13,0,34,0,37,0,0,0,0,0,0,0,0,0,0,37,0,34,37,0,34,0,0,34,42
6,16410,3,KR4MFM,2.24,3,   boost,29.17,90109,978.52,75.69,38.53,52.7,4.2,4.19,4.11,32.34,-0.06,1.43,-44.54,0.26,-4.57,0.72,-0.12,0.21,12.01,4.2,0,0,0,0,1,1,15,31.0423706,-103.5226904,996,2026,6,20,23,46,39,8,83,108,85,0.9,0.5,0.7,39,41,35,0,0,0,0,13,0,34,0,37,0,0,0,0,0,0,0,0,0,0,37,0,34,37,0,34,0,0,34,42
6,16410,3,KR4MFM,2.25,3,   boost,10.56,90122,977.33,74.5,38.69,52.7,4.2,4.19,4.11,29.4,0.24,1.5,-43.01,0.2,-5.37,0.72,-0.12,0.21,12.07,4.2,0,0,0,0,1,1,15,31.0423706,-103.5226904,996,2026,6,20,23,46,39,8,83,108,85,0.9,0.5,0.7,39,41,35,0,0,0,0,13,0,34,0,37,0,0,0,0,0,0,0,0,0,0,37,0,34,37,0,34,0,0,34,42
6,16410,3,KR4MFM,2.26,3,   boost,1.01,90122,977.33,74.5,38.84,52.7,4.19,4.19,4.11,20.09,0.25,0.68,-41.06,-0.41,-7.08,0.71,-0.12,0.21,12.14,4.19,0,0,0,0,1,1,15,31.0423706,-103.5226904,996,2026,6,20,23,46,39,8,83,108,85,0.9,0.5,0.7,39,41,35,0,0,0,0,13,0,34,0,37,0,0,0,0,0,0,0,0,0,0,37,0,34,37,0,34,0,0,34,42
6,16410,3,KR4MFM,2.26,3,   boost,1.01,90122,977.33,74.5,38.84,52.7,4.19,4.19,4.11,20.09,0.25,0.68,-41.06,-0.41,-7.08,0.71,-0.12,0.21,12.14,4.19,0,0,0,0,1,1,15,31.0423706,-103.5226904,996,2026,6,20,23,46,39,8,83,108,85,0.9,0.5,0.7,39,41,35,0,0,0,0,13,0,34,0,37,0,0,0,0,0,0,0,0,0,0,37,0,34,37,0,34,0,0,34,42
6,16410,3,KR4MFM,2.27,3,   boost,16.6,90085,980.72,77.89,38.99,52.7,4.19,4.19,4.11,26.55,0.39,0.42,-39.66,-0.6,-6.83,0.71,-0.12,0.21,12.21,4.19,0,0,0,0,1,1,15,31.0423706,-103.5226904,996,2026,6,20,23,46,39,8,83,108,85,0.9,0.5,0.7,39,41,35,0,0,0,0,13,0,34,0,37,0,0,0,0,0,0,0,0,0,0,37,0,34,37,0,34,0,0,34,42
6,16410,3,KR4MFM,2.28,3,   boost,25.15,90085,980.72,77.89,39.12,52.7,4.19,4.19,4.11,27.84,0.27,0.01,-39.23,0.13,-4.88,0.71,-0.12,0.21,12.25,4.19,0,0,0,0,1,1,15,31.0423706,-103.5226904,996,2026,6,20,23,46,39,8,83,108,85,0.9,0.5,0.7,39,41,35,0,0,0,0,13,0,34,0,37,0,0,0,0,0,0,0,0,0,0,37,0,34,37,0,34,0,0,34,42
6,16410,3,KR4MFM,2.29,3,   boost,15.59,90093,979.98,77.16,39.24,52.7,4.19,4.19,4.11,19.85,0.01,-0.37,-39.41,-0.29,-5.92,0.71,-0.13,0.21,12.31,4.19,0,0,0,0,1,1,15,31.0423706,-103.5226904,996,2026,6,20,23,46,39,8,83,108,85,0.9,0.5,0.7,39,41,35,0,0,0,0,13,0,34,0,37,0,0,0,0,0,0,0,0,0,0,37,0,34,37,0,34,0,0,34,42
6,16410,3,KR4MFM,2.3,3,   boost,-0.5,90093,979.98,77.16,39.36,52.7,4.19,4.19,4.11,18.04,-0.19,-0.32,-38.92,-1.21,-8.24,0.71,-0.13,0.21,12.4,4.19,0,0,0,0,1,1,15,31.0423706,-103.5226904,996,2026,6,20,23,46,39,8,83,108,85,0.9,0.5,0.7,39,41,35,0,0,0,0,13,0,34,0,37,0,0,0,0,0,0,0,0,0,0,37,0,34,37,0,34,0,0,34,42
6,16410,3,KR4MFM,2.31,3,   boost,7.54,90063,982.73,79.91,39.47,52.7,4.19,4.19,4.11,31.21,-0.02,1.82,-37.4,-0.29,-8.11,0.71,-0.13,0.21,12.48,4.19,0,0,0,0,1,1,15,31.0423706,-103.5226904,996,2026,6,20,23,46,39,8,83,108,85,0.9,0.5,0.7,39,41,35,0,0,0,0,13,0,34,0,37,0,0,0,0,0,0,0,0,0,0,37,0,34,37,0,34,0,0,34,42
6,16410,3,KR4MFM,2.32,3,   boost,16.6,90063,982.73,79.91,39.59,52.7,4.19,4.19,4.11,34.84,0.32,1.8,-34.83,1.78,-6.59,0.71,-0.13,0.21,12.54,4.19,0,0,0,0,1,1,15,31.0423706,-103.5226904,996,2026,6,20,23,46,39,8,83,108,85,0.9,0.5,0.7,39,41,35,0,0,0,0,13,0,34,0,37,0,0,0,0,0,0,0,0,0,0,37,0,34,37,0,34,0,0,34,42
6,16410,3,KR4MFM,2.33,3,   boost,17.1,90073,981.81,78.99,39.7,52.7,4.19,4.19,4.11,20.47,0.37,0.61,-33.06,0.68,-7.69,0.71,-0.13,0.2,12.62,4.19,0,0,0,0,1,1,15,31.0423706,-103.5226904,996,2026,6,20,23,46,39,8,83,108,85,0.9,0.5,0.7,39,41,35,0,0,0,0,13,0,34,0,37,0,0,0,0,0,0,0,0,0,0,37,0,34,37,0,34,0,0,34,42
6,16410,3,KR4MFM,2.34,3,   boost,13.58,90073,981.81,78.99,39.82,52.7,4.19,4.19,4.11,18.36,0.41,-0.32,-32.03,-1.33,-9.09,0.71,-0.13,0.2,12.71,4.19,0,0,0,0,1,1,15,31.0423706,-103.5226904,996,2026,6,20,23,46,39,8,83,108,85,0.9,0.5,0.7,39,41,35,0,0,0,0,13,0,34,0,37,0,0,0,0,0,0,0,0,0,0,37,0,34,37,0,34,0,0,34,42
6,16410,3,KR4MFM,2.35,3,   boost,7.04,90050,983.92,81.1,39.94,52.7,4.19,4.19,4.11,28.67,0.29,-0.18,-32.58,-0.72,-8.18,0.71,-0.13,0.2,12.79,4.19,0,0,0,0,1,1,15,31.0423706,-103.5226904,996,2026,6,20,23,46,39,8,83,108,85,0.9,0.5,0.7,39,41,35,0,0,0,0,13,0,34,0,37,0,0,0,0,0,0,0,0,0,0,37,0,34,37,0,34,0,0,34,42
6,16410,3,KR4MFM,2.36,3,   boost,6.03,90050,983.92,81.1,40.07,52.7,4.19,4.19,4.11,18.91,-0.06,-0.47,-32.82,0.62,-7.38,0.71,-0.13,0.21,12.86,4.19,0,0,0,0,1,1,15,31.0423706,-103.5226904,996,2026,6,20,23,46,39,8,83,108,85,0.9,0.5,0.7,39,41,35,0,0,0,0,13,0,34,0,37,0,0,0,0,0,0,0,0,0,0,37,0,34,37,0,34,0,0,34,42
6,16410,3,KR4MFM,2.37,3,   boost,18.1,90041,984.74,81.92,40.2,52.7,4.19,4.19,4.11,11.93,-0.34,-0.97,-31.91,0.32,-9.46,0.71,-0.13,0.21,12.96,4.19,0,0,0,0,1,1,15,31.0423706,-103.5226904,996,2026,6,20,23,46,39,8,83,108,85,0.9,0.5,0.7,39,41,35,0,0,0,0,13,0,34,0,37,0,0,0,0,0,0,0,0,0,0,37,0,34,37,0,34,0,0,34,42
6,16410,3,KR4MFM,2.38,3,   boost,29.67,90041,984.74,81.92,40.35,52.7,4.19,4.19,4.11,25.64,-0.29,0.31,-29.59,-0.54,-10.37,0.71,-0.13,0.21,13.06,4.19,0,0,0,0,1,1,15,31.0423706,-103.5226904,996,2026,6,20,23,46,39,8,83,108,85,0.9,0.5,0.7,39,41,35,0,0,0,0,13,0,34,0,37,0,0,0,0,0,0,0,0,0,0,37,0,34,37,0,34,0,0,34,42
6,16410,3,KR4MFM,2.39,3,   boost,16.09,90045,984.38,81.55,40.49,52.7,4.19,4.19,4.11,30.45,0.04,0.86,-27.21,0.99,-8.79,0.71,-0.13,0.21,13.14,4.19,0,0,0,0,1,1,15,31.0423706,-103.5226904,996,2026,6,20,23,46,39,8,83,108,85,0.9,0.5,0.7,39,41,35,0,0,0,0,13,0,34,0,37,0,0,0,0,0,0,0,0,0,0,37,0,34,37,0,34,0,0,34,42
6,16410,3,KR4MFM,2.4,3,   boost,2.01,90045,984.38,81.55,40.62,52.7,4.19,4.19,4.11,20.12,0.17,0.79,-26.17,1.72,-8.97,0.71,-0.13,0.21,13.23,4.19,0,0,0,0,1,1,15,31.0423706,-103.5226904,996,2026,6,20,23,46,39,8,83,108,85,0.9,0.5,0.7,39,41,35,0,0,0,0,13,0,34,0,37,0,0,0,0,0,0,0,0,0,0,37,0,34,37,0,34,0,0,34,42
6,16410,3,KR4MFM,2.41,3,   boost,6.54,90016,987.03,84.21,40.75,52.7,4.19,4.19,4.11,21.42,0.28,0.05,-25.44,0.56,-10.8,0.71,-0.13,0.21,13.34,4.19,0,0,0,0,1,1,15,31.0423706,-103.5226904,996,2026,6,20,23,46,39,8,83,108,85,0.9,0.5,0.7,39,41,35,0,0,0,0,13,0,34,0,37,0,0,0,0,0,0,0,0,0,0,37,0,34,37,0,34,0,0,34,42
6,16410,3,KR4MFM,2.42,3,   boost,24.14,90016,987.03,84.21,40.87,52.7,4.19,4.19,4.11,30.68,0.37,0.56,-24.76,-0.11,-10.62,0.71,-0.13,0.21,13.44,4.19,0,0,0,0,1,1,15,31.0423706,-103.5226904,996,2026,6,20,23,46,39,8,83,108,85,0.9,0.5,0.7,39,41,35,0,0,0,0,13,0,34,0,37,0,0,0,0,0,0,0,0,0,0,37,0,34,37,0,34,0,0,34,42
6,16410,3,KR4MFM,2.43,3,   boost,13.58,90025,986.21,83.39,40.98,52.7,4.19,4.19,4.11,27.08,0.14,0.31,-23.79,0.62,-9.21,0.71,-0.13,0.21,13.53,4.19,0,0,0,0,1,1,15,31.0423706,-103.5226904,996,2026,6,20,23,46,39,8,83,108,85,0.9,0.5,0.7,39,41,35,0,0,0,0,13,0,34,0,37,0,0,0,0,0,0,0,0,0,0,37,0,34,37,0,34,0,0,34,42
6,16410,3,KR4MFM,2.44,3,   boost,2.01,90025,986.21,83.39,41.1,52.7,4.19,4.19,4.11,17.64,-0.02,0.17,-22.26,1.17,-9.76,0.72,-0.13,0.2,13.63,4.19,0,0,0,0,1,1,15,31.0423706,-103.5226904,996,2026,6,20,23,46,39,8,83,108,85,0.9,0.5,0.7,39,41,35,0,0,0,0,13,0,34,0,37,0,0,0,0,0,0,0,0,0,0,37,0,34,37,0,34,0,0,34,42
6,16410,3,KR4MFM,2.45,3,   boost,8.05,89993,989.14,86.32,41.24,52.7,4.19,4.19,4.11,22.46,0.17,0.9,-20.25,-0.17,-11.11,0.72,-0.13,0.2,13.74,4.19,0,0,0,0,1,1,15,31.0423706,-103.5226904,996,2026,6,20,23,46,39,8,83,108,85,0.9,0.5,0.7,39,41,35,0,0,0,0,13,0,34,0,37,0,0,0,0,0,0,0,0,0,0,37,0,34,37,0,34,0,0,34,42
6,16410,3,KR4MFM,2.46,3,   boost,29.67,89993,989.14,86.32,41.38,52.7,4.19,4.19,4.11,33.02,0.27,0.91,-19.03,0.26,-11.17,0.72,-0.13,0.2,13.85,4.19,0,0,0,0,1,1,15,31.0423706,-103.5226904,996,2026,6,20,23,46,39,8,83,108,85,0.9,0.5,0.7,39,41,35,0,0,0,0,13,0,34,0,37,0,0,0,0,0,0,0,0,0,0,37,0,34,37,0,34,0,0,34,42
6,16410,3,KR4MFM,2.47,3,   boost,24.64,90001,988.41,85.59,41.52,52.7,4.19,4.19,4.11,20.22,0.32,-0.29,-17.81,1.29,-9.52,0.71,-0.13,0.2,13.94,4.19,0,0,0,0,1,1,15,31.0423706,-103.5226904,996,2026,6,20,23,46,39,8,83,108,85,0.9,0.5,0.7,39,41,35,0,0,0,0,13,0,34,0,37,0,0,0,0,0,0,0,0,0,0,37,0,34,37,0,34,0,0,34,42
6,16410,3,KR4MFM,2.48,3,   boost,7.54,90001,988.41,85.59,41.66,52.7,4.19,4.19,4.11,12.5,0.09,-1.36,-15.3,1.17,-11.17,0.71,-0.13,0.2,14.05,4.19,0,0,0,0,1,1,15,31.0423706,-103.5226904,996,2026,6,20,23,46,39,8,83,108,85,0.9,0.5,0.7,39,41,35,0,0,0,0,13,0,34,0,37,0,0,0,0,0,0,0,0,0,0,37,0,34,37,0,34,0,0,34,42
6,16410,3,KR4MFM,2.49,3,   boost,1.01,89953,992.81,89.98,41.78,52.7,4.19,4.19,4.11,24.24,0.09,0.01,-12.19,-0.11,-12.45,0.71,-0.13,0.2,14.17,4.19,0,0,0,0,1,1,15,31.0423706,-103.5226904,996,2026,6,20,23,46,39,8,83,108,85,0.9,0.5,0.7,39,41,35,0,0,0,0,13,0,34,0,37,0,0,0,0,0,0,0,0,0,0,37,0,34,37,0,34,0,0,34,42
6,16410,3,KR4MFM,2.5,3,   boost,18.61,89953,992.81,89.98,41.89,52.7,4.19,4.19,4.11,28.96,-0.12,0.7,-9.81,1.66,-11.72,0.72,-0.13,0.2,14.28,4.19,0,0,0,0,1,1,15,31.0423706,-103.5226904,996,2026,6,20,23,46,39,8,83,108,85,0.9,0.5,0.7,39,41,35,0,0,0,0,13,0,34,0,37,0,0,0,0,0,0,0,0,0,0,37,0,34,37,0,34,0,0,34,42
6,16410,3,KR4MFM,2.51,3,   boost,6.54,89984,989.97,87.14,42,52.7,4.19,4.19,4.11,19.78,0.02,0.64,-7.12,2.27,-9.95,0.72,-0.13,0.2,14.37,4.19,0,0,0,0,1,1,15,31.0423706,-103.5226904,996,2026,6,20,23,46,39,8,83,108,85,0.9,0.5,0.7,39,41,35,0,0,0,0,13,0,34,0,37,0,0,0,0,0,0,0,0,0,0,37,0,34,37,0,34,0,0,34,42
6,16410,3,KR4MFM,2.52,3,   boost,12.07,89984,989.97,87.14,42.12,52.7,4.19,4.19,4.11,21.55,0.22,0.01,-5.29,1.78,-11.53,0.71,-0.13,0.21,14.49,4.19,0,0,0,0,1,1,15,31.0423706,-103.5226904,996,2026,6,20,23,46,39,8,83,108,85,0.9,0.5,0.7,39,41,35,0,0,0,0,13,0,34,0,37,0,0,0,0,0,0,0,0,0,0,37,0,34,37,0,34,0,0,34,42
6,16410,3,KR4MFM,2.53,3,   boost,20.12,89922,995.65,92.83,42.24,52.7,4.19,4.19,4.11,33.3,0.37,0.86,-4.13,-0.17,-11.84,0.71,-0.13,0.21,14.6,4.19,0,0,0,0,1,1,15,31.0423706,-103.5226904,996,2026,6,20,23,46,39,8,83,108,85,0.9,0.5,0.7,39,41,35,0,0,0,0,13,0,34,0,37,0,0,0,0,0,0,0,0,0,0,37,0,34,37,0,34,0,0,34,42
6,16410,3,KR4MFM,2.54,3,   boost,15.59,89922,995.65,92.83,42.38,52.7,4.19,4.19,4.11,25.83,0.29,0.65,-2.85,0.99,-10.13,0.71,-0.13,0.21,14.7,4.19,0,0,0,0,1,1,15,31.0423706,-103.5226904,996,2026,6,20,23,46,39,8,83,108,85,0.9,0.5,0.7,39,41,35,0,0,0,0,13,0,34,0,37,0,0,0,0,0,0,0,0,0,0,37,0,34,37,0,34,0,0,34,42
6,16410,3,KR4MFM,2.55,3,   boost,7.04,89954,992.72,89.89,42.51,52.7,4.19,4.19,4.11,15.13,0.19,-0.11,-0.66,1.48,-9.4,0.72,-0.13,0.2,14.79,4.19,0,0,0,0,1,1,15,31.0423706,-103.5226904,996,2026,6,20,23,46,39,8,83,108,85,0.9,0.5,0.7,39,41,35,0,0,0,0,13,0,34,0,37,0,0,0,0,0,0,0,0,0,0,37,0,34,37,0,34,0,0,34,42
6,16410,3,KR4MFM,2.56,3,   boost,14.58,89954,992.72,89.89,42.64,52.7,4.19,4.19,4.11,21.96,0.11,-0.04,1.91,1.54,-11.65,0.72,-0.13,0.2,14.9,4.19,0,0,0,0,1,1,15,31.0423706,-103.5226904,996,2026,6,20,23,46,39,8,83,108,85,0.9,0.5,0.7,39,41,35,0,0,0,0,13,0,34,0,37,0,0,0,0,0,0,0,0,0,0,37,0,34,37,0,34,0,0,34,42
6,16410,3,KR4MFM,2.57,3,   boost,26.15,89907,997.03,94.2,42.77,52.7,4.19,4.19,4.11,29.99,0.22,0.54,4.11,1.48,-11.72,0.72,-0.13,0.2,15.02,4.19,0,0,0,0,1,1,15,31.0423706,-103.5226904,996,2026,6,20,23,46,39,8,83,108,85,0.9,0.5,0.7,39,41,35,0,0,0,0,13,0,34,0,37,0,0,0,0,0,0,0,0,0,0,37,0,34,37,0,34,0,0,34,42
6,16410,3,KR4MFM,2.58,3,   boost,11.06,89907,997.03,94.2,42.88,52.7,4.19,4.2,4.1,18.21,0.11,0.18,6.12,2.94,-10.19,0.72,-0.12,0.2,15.11,4.2,0,0,0.01,0,1,1,15,31.0423706,-103.5226904,996,2026,6,20,23,46,39,8,83,108,85,0.9,0.5,0.7,39,41,35,0,0,0,0,13,0,34,0,37,0,0,0,0,0,0,0,0,0,0,37,0,34,37,0,34,0,0,34,42
6,16410,3,KR4MFM,2.58,3,   boost,11.06,89907,997.03,94.2,42.88,52.7,4.19,4.2,4.1,18.21,0.11,0.18,6.12,2.94,-10.19,0.72,-0.12,0.2,15.11,4.2,0,0,0.01,0,1,1,15,31.0423706,-103.5226904,996,2026,6,20,23,46,39,8,83,108,85,0.9,0.5,0.7,39,41,35,0,0,0,0,13,0,34,0,37,0,0,0,0,0,0,0,0,0,0,37,0,34,37,0,34,0,0,34,42
6,16410,3,KR4MFM,2.59,3,   boost,-6.54,89905,997.21,94.38,42.99,52.7,4.19,4.2,4.1,20.44,0.13,-0.83,7.95,3.06,-10.8,0.71,-0.12,0.2,15.22,4.2,0,0,0.01,0,1,1,15,31.0423706,-103.5226904,996,2026,6,20,23,46,39,8,83,108,85,0.9,0.5,0.7,39,41,35,0,0,0,0,13,0,34,0,37,0,0,0,0,0,0,0,0,0,0,37,0,34,37,0,34,0,0,34,42
6,16410,3,KR4MFM,2.6,3,   boost,4.02,89905,997.21,94.38,43.1,52.7,4.19,4.2,4.1,29.02,0.28,0.97,10.09,0.87,-11.35,0.71,-0.12,0.2,15.33,4.2,0,0,0.01,0,1,1,15,31.0423706,-103.5226904,996,2026,6,20,23,46,39,8,83,108,85,0.9,0.5,0.7,39,41,35,0,0,0,0,13,0,34,0,37,0,0,0,0,0,0,0,0,0,0,37,0,34,37,0,34,0,0,34,42
6,16410,3,KR4MFM,2.61,3,   boost,26.65,89907,997.03,94.2,43.23,52.7,4.19,4.2,4.1,19.4,0.04,-1.26,11.92,1.05,-10.19,0.72,-0.12,0.2,15.43,4.2,0,0,0.01,0,1,1,15,31.0423706,-103.5226904,996,2026,6,20,23,46,39,8,83,108,85,0.9,0.5,0.7,39,41,35,0,0,0,0,13,0,34,0,37,0,0,0,0,0,0,0,0,0,0,37,0,34,37,0,34,0,0,34,42
6,16410,3,KR4MFM,2.62,3,   boost,32.69,89907,997.03,94.2,43.38,52.7,4.19,4.2,4.1,25.22,-0.12,-0.29,12.96,0.81,-7.93,0.72,-0.12,0.2,15.5,4.2,0,0,0.01,0,1,1,15,31.0423706,-103.5226904,996,2026,6,20,23,46,39,8,83,108,85,0.9,0.5,0.7,39,41,35,0,0,0,0,13,0,34,0,37,0,0,0,0,0,0,0,0,0,0,37,0,34,37,0,34,0,0,34,42
6,16410,3,KR4MFM,2.63,3,   boost,12.57,89888,998.77,95.94,43.53,52.7,4.19,4.2,4.1,21.85,-0.15,0.7,13.99,2.03,-9.27,0.71,-0.12,0.2,15.59,4.2,0,0,0.01,0,1,1,15,31.0423706,-103.5226904,996,2026,6,20,23,46,39,8,83,108,85,0.9,0.5,0.7,39,41,35,0,0,0,0,13,0,34,0,37,0,0,0,0,0,0,0,0,0,0,37,0,34,37,0,34,0,0,34,42
6,16410,3,KR4MFM,2.64,3,   boost,4.02,89888,998.77,95.94,43.67,52.7,4.19,4.2,4.1,22.62,0.06,0.84,16.5,1.72,-11.11,0.71,-0.12,0.2,15.7,4.2,0,0,0.01,0,1,1,15,31.0423706,-103.5226904,996,2026,6,20,23,46,39,8,83,108,85,0.9,0.5,0.7,39,41,35,0,0,0,0,13,0,34,0,37,0,0,0,0,0,0,0,0,0,0,37,0,34,37,0,34,0,0,34,42
6,16410,3,KR4MFM,2.65,3,   boost,11.06,89884,999.13,96.31,43.81,52.7,4.19,4.2,4.1,35,0.45,2.21,19.67,4.16,-10.07,0.71,-0.12,0.2,15.79,4.2,0,0,0.01,0,1,1,15,31.0423706,-103.5226904,996,2026,6,20,23,46,39,8,83,108,85,0.9,0.5,0.7,39,41,35,0,0,0,0,13,0,34,0,37,0,0,0,0,0,0,0,0,0,0,37,0,34,37,0,34,0,0,34,42
6,16410,3,KR4MFM,2.66,3,   boost,16.09,89884,999.13,96.31,43.94,52.7,4.19,4.2,4.1,31.38,0.78,1.61,22.72,4.29,-9.27,0.72,-0.11,0.2,15.88,4.2,0,0,0.01,0,1,1,15,31.0423706,-103.5226904,996,2026,6,20,23,46,39,8,83,108,85,0.9,0.5,0.7,39,41,35,0,0,0,0,13,0,34,0,37,0,0,0,0,0,0,0,0,0,0,37,0,34,37,0,34,0,0,34,42
6,16410,3,KR4MFM,2.67,3,   boost,23.64,89851,1002.16,99.34,44.07,52.7,4.19,4.2,4.1,17.74,0.73,0.18,24.92,3.67,-10.13,0.72,-0.11,0.2,15.98,4.2,0,0,0.01,0,1,1,15,31.0423706,-103.5226904,996,2026,6,20,23,46,39,8,83,108,85,0.9,0.5,0.7,39,41,35,0,0,0,0,13,0,34,0,37,0,0,0,0,0,0,0,0,0,0,37,0,34,37,0,34,0,0,34,42
6,16410,3,KR4MFM,2.68,3,   boost,12.07,89851,1002.16,99.34,44.2,52.7,4.19,4.2,4.1,25.53,0.61,0.08,25.35,1.72,-10.56,0.72,-0.11,0.2,16.08,4.2,0,0,0.01,0,1,1,15,31.0423706,-103.5226904,996,2026,6,20,23,46,39,8,83,108,85,0.9,0.5,0.7,39,41,35,0,0,0,0,13,0,34,0,37,0,0,0,0,0,0,0,0,0,0,37,0,34,37,0,34,0,0,34,42
6,16410,3,KR4MFM,2.69,3,   boost,5.03,89870,1000.42,97.6,44.34,52.7,4.19,4.2,4.1,25.99,0.14,-0.21,25.47,2.76,-8.36,0.72,-0.11,0.2,16.16,4.2,0,0,0.01,0,1,1,15,31.0423706,-103.5226904,996,2026,6,20,23,46,39,8,83,108,85,0.9,0.5,0.7,39,41,35,0,0,0,0,13,0,34,0,37,0,0,0,0,0,0,0,0,0,0,37,0,34,37,0,34,0,0,34,42
6,16410,3,KR4MFM,2.7,3,   boost,13.08,89870,1000.42,97.6,44.48,52.7,4.19,4.2,4.1,17.48,-0.12,-0.13,26.87,3.55,-8.73,0.72,-0.11,0.2,16.24,4.2,0,0,0.01,0,1,1,15,31.0423706,-103.5226904,996,2026,6,20,23,46,39,8,83,108,85,0.9,0.5,0.7,39,41,35,0,0,0,0,13,0,34,0,37,0,0,0,0,0,0,0,0,0,0,37,0,34,37,0,34,0,0,34,42
6,16410,3,KR4MFM,2.71,3,   boost,31.18,89825,1004.55,101.72,44.61,52.7,4.19,4.2,4.1,19.42,-0.01,-0.01,28.28,3.13,-9.88,0.71,-0.11,0.2,16.34,4.2,0,0,0.01,0,1,1,15,31.0423706,-103.5226904,996,2026,6,20,23,46,39,8,83,108,85,0.9,0.5,0.7,39,41,35,0,0,0,0,13,0,34,0,37,0,0,0,0,0,0,0,0,0,0,37,0,34,37,0,34,0,0,34,42
6,16410,3,KR4MFM,2.72,3,   boost,12.57,89825,1004.55,101.72,44.74,52.7,4.19,4.2,4.1,35.51,0.4,1.49,29.92,3.06,-8.85,0.71,-0.1,0.2,16.43,4.2,0,0,0.01,0,1,1,15,31.0423706,-103.5226904,996,2026,6,20,23,46,39,8,83,108,85,0.9,0.5,0.7,39,41,35,0,0,0,0,13,0,34,0,37,0,0,0,0,0,0,0,0,0,0,37,0,34,37,0,34,0,0,34,42
6,16410,3,KR4MFM,2.73,3,   boost,0.5,89851,1002.16,99.34,44.88,52.7,4.19,4.2,4.1,22.33,0.54,0.88,30.53,4.47,-7.2,0.71,-0.1,0.2,16.49,4.2,0,0,0.01,0,1,1,15,31.0423706,-103.5226904,996,2026,6,20,23,46,39,8,83,108,85,0.9,0.5,0.7,39,41,35,0,0,0,0,13,0,34,0,37,0,0,0,0,0,0,0,0,0,0,37,0,34,37,0,34,0,0,34,42
6,16410,3,KR4MFM,2.74,3,   boost,10.06,89851,1002.16,99.34,45.01,52.7,4.19,4.2,4.1,13.61,0.78,-1.06,31.88,2.39,-8.42,0.71,-0.1,0.2,16.58,4.2,0,0,0.01,0,1,1,15,31.0423706,-103.5226904,996,2026,6,20,23,46,39,8,83,108,85,0.9,0.5,0.7,39,41,35,0,0,0,0,13,0,34,0,37,0,0,0,0,0,0,0,0,0,0,37,0,34,37,0,34,0,0,34,42
6,16410,3,KR4MFM,2.75,3,   boost,26.65,89803,1006.57,103.74,45.16,52.7,4.19,4.2,4.1,26.84,0.75,-0.3,32.61,2.39,-8.85,0.71,-0.1,0.2,16.66,4.2,0,0,0.01,0,1,1,15,31.0423706,-103.5226904,996,2026,6,20,23,46,39,8,83,108,85,0.9,0.5,0.7,39,41,35,0,0,0,0,13,0,34,0,37,0,0,0,0,0,0,0,0,0,0,37,0,34,37,0,34,0,0,34,42
6,16410,3,KR4MFM,2.76,3,   boost,25.15,89803,1006.57,103.74,45.3,52.7,4.19,4.2,4.1,21.22,0.2,-0.36,33.77,2.76,-7.81,0.71,-0.1,0.2,16.74,4.2,0,0,0.01,0,1,1,15,31.0423706,-103.5226904,996,2026,6,20,23,46,39,8,83,108,85,0.9,0.5,0.7,39,41,35,0,0,0,0,13,0,34,0,37,0,0,0,0,0,0,0,0,0,0,37,0,34,37,0,34,0,0,34,42
6,16410,3,KR4MFM,2.77,3,   boost,9.05,89797,1007.12,104.29,45.45,52.7,4.19,4.2,4.1,13.74,-0.06,-0.13,35.97,4.9,-8.24,0.72,-0.09,0.2,16.82,4.2,0,0,0.01,0,1,1,15,31.0423706,-103.5226904,996,2026,6,20,23,46,39,8,83,108,85,0.9,0.5,0.7,39,41,35,0,0,0,0,13,0,34,0,37,0,0,0,0,0,0,0,0,0,0,37,0,34,37,0,34,0,0,34,42
6,16410,3,KR4MFM,2.78,3,   boost,10.56,89797,1007.12,104.29,45.59,52.7,4.19,4.2,4.1,24.64,0.21,0.38,38.1,3.61,-8.6,0.72,-0.09,0.2,16.91,4.2,0,0,0.01,0,1,1,15,31.0423706,-103.5226904,996,2026,6,20,23,46,39,8,83,108,85,0.9,0.5,0.7,39,41,35,0,0,0,0,13,0,34,0,37,0,0,0,0,0,0,0,0,0,0,37,0,34,37,0,34,0,0,34,42
6,16410,3,KR4MFM,2.79,3,   boost,16.09,89797,1007.12,104.29,45.72,52.7,4.19,4.2,4.1,31.07,0.68,0.98,39.99,3.67,-6.71,0.72,-0.09,0.2,16.97,4.2,0,0,0.01,0,1,1,15,31.0423706,-103.5226904,996,2026,6,20,23,46,39,8,83,108,85,0.9,0.5,0.7,39,41,35,0,0,0,0,13,0,34,0,37,0,0,0,0,0,0,0,0,0,0,37,0,34,37,0,34,0,0,34,42
6,16410,3,KR4MFM,2.8,3,   boost,6.03,89797,1007.12,104.29,45.86,52.7,4.19,4.2,4.1,23.91,0.88,1.43,40.6,4.9,-5.73,0.72,-0.09,0.2,17.03,4.2,0,0,0.01,0,1,1,15,31.0423706,-103.5226904,996,2026,6,20,23,46,39,8,83,108,85,0.9,0.5,0.7,39,41,35,0,0,0,0,13,0,34,0,37,0,0,0,0,0,0,0,0,0,0,37,0,34,37,0,34,0,0,34,42
6,16410,3,KR4MFM,2.81,3,   boost,24.14,89770,1009.6,106.77,45.99,52.7,4.19,4.2,4.1,22.94,1.1,0.37,41.28,4.83,-7.2,0.71,-0.09,0.2,17.1,4.2,0,0,0.01,0,1,1,15,31.0423706,-103.5226904,996,2026,6,20,23,46,39,8,83,108,85,0.9,0.5,0.7,39,41,35,0,0,0,0,13,0,34,0,37,0,0,0,0,0,0,0,0,0,0,37,0,34,37,0,34,0,0,34,42
6,16410,3,KR4MFM,2.82,3,   boost,21.62,89770,1009.6,106.77,46.12,52.7,4.19,4.2,4.1,29.61,0.98,1.4,42.25,3.74,-7.26,0.71,-0.09,0.2,17.17,4.2,0,0,0.01,0,1,1,15,31.0423706,-103.5226904,996,2026,6,20,23,46,39,8,83,108,85,0.9,0.5,0.7,39,41,35,0,0,0,0,13,0,34,0,37,0,0,0,0,0,0,0,0,0,0,37,0,34,37,0,34,0,0,34,42
6,16410,3,KR4MFM,2.83,3,   boost,7.04,89778,1008.86,106.04,46.25,52.7,4.19,4.2,4.1,28.57,0.5,1.33,42.44,4.9,-5.8,0.71,-0.08,0.2,17.23,4.2,0,0,0.01,0,1,1,15,31.0423706,-103.5226904,996,2026,6,20,23,46,39,8,83,108,85,0.9,0.5,0.7,39,41,35,0,0,0,0,13,0,34,0,37,0,0,0,0,0,0,0,0,0,0,37,0,34,37,0,34,0,0,34,42
6,16410,3,KR4MFM,2.84,3,   boost,7.54,89778,1008.86,106.04,46.36,52.7,4.19,4.2,4.1,18.59,0.36,0.4,41.4,4.59,-4.94,0.72,-0.08,0.2,17.28,4.2,0,0,0.01,0,1,1,15,31.0423706,-103.5226904,996,2026,6,20,23,46,39,8,83,108,85,0.9,0.5,0.7,39,41,35,0,0,0,0,13,0,34,0,37,0,0,0,0,0,0,0,0,0,0,37,0,34,37,0,34,0,0,34,42
6,16410,3,KR4MFM,2.85,3,   boost,12.07,89739,1012.44,109.62,46.47,52.7,4.19,4.2,4.1,27.37,0.83,0.57,40.06,3.55,-5.19,0.71,-0.08,0.2,17.34,4.2,0,0,0.01,0,1,1,15,31.0423706,-103.5226904,996,2026,6,20,23,46,39,8,83,108,85,0.9,0.5,0.7,39,41,35,0,0,0,0,13,0,34,0,37,0,0,0,0,0,0,0,0,0,0,37,0,34,37,0,34,0,0,34,42
6,16410,3,KR4MFM,2.86,3,   boost,7.04,89739,1012.44,109.62,46.58,52.7,4.19,4.2,4.1,26.72,0.8,0.09,38.29,3.13,-3.54,0.72,-0.08,0.2,17.37,4.2,0,0,0.01,0,1,1,15,31.0423706,-103.5226904,996,2026,6,20,23,46,39,8,83,108,85,0.9,0.5,0.7,39,41,35,0,0,0,0,13,0,34,0,37,0,0,0,0,0,0,0,0,0,0,37,0,34,37,0,34,0,0,34,42
6,16410,3,KR4MFM,2.87,3,   boost,10.56,89740,1012.35,109.53,46.7,52.7,4.19,4.2,4.1,14.17,0.7,-0.17,37.67,4.29,-3.41,0.72,-0.08,0.2,17.41,4.2,0,0,0.01,0,1,1,15,31.0423706,-103.5226904,996,2026,6,20,23,46,39,8,83,108,85,0.9,0.5,0.7,39,41,35,0,0,0,0,13,0,34,0,37,0,0,0,0,0,0,0,0,0,0,37,0,34,37,0,34,0,0,34,42
6,16410,3,KR4MFM,2.88,3,   boost,27.66,89740,1012.35,109.53,46.82,52.7,4.19,4.2,4.1,23.57,0.67,-0.27,36.52,4.1,-4.21,0.72,-0.07,0.19,17.45,4.2,0,0,0.01,0,1,1,15,31.0423706,-103.5226904,996,2026,6,20,23,46,39,8,83,108,85,0.9,0.5,0.7,39,41,35,0,0,0,0,13,0,34,0,37,0,0,0,0,0,0,0,0,0,0,37,0,34,37,0,34,0,0,34,42
6,16410,3,KR4MFM,2.89,3,   boost,17.6,89725,1013.73,110.91,46.96,52.7,4.19,4.2,4.1,26.77,0.66,0.09,35.6,4.04,-3.48,0.72,-0.07,0.19,17.49,4.2,0,0,0.01,0,1,1,15,31.0423706,-103.5226904,996,2026,6,20,23,46,39,8,83,108,85,0.9,0.5,0.7,39,41,35,0,0,0,0,13,0,34,0,37,0,0,0,0,0,0,0,0,0,0,37,0,34,37,0,34,0,0,34,42
6,16410,3,KR4MFM,2.9,3,   boost,7.04,89725,1013.73,110.91,47.08,52.7,4.19,4.2,4.11,17.54,0.13,0.77,35.05,4.1,-3.17,0.72,-0.07,0.19,17.53,4.19,0,0,0,0,1,1,15,31.0423706,-103.5226904,996,2026,6,20,23,46,39,8,83,108,85,0.9,0.5,0.7,39,41,35,0,0,0,0,13,0,34,0,37,0,0,0,0,0,0,0,0,0,0,37,0,34,37,0,34,0,0,34,42
6,16410,3,KR4MFM,2.9,3,   boost,7.04,89725,1013.73,110.91,47.08,52.7,4.19,4.2,4.11,17.54,0.13,0.77,35.05,4.1,-3.17,0.72,-0.07,0.19,17.53,4.19,0,0,0,0,1,1,15,31.0423706,-103.5226904,996,2026,6,20,23,46,39,8,83,108,85,0.9,0.5,0.7,39,41,35,0,0,0,0,13,0,34,0,37,0,0,0,0,0,0,0,0,0,0,37,0,34,37,0,34,0,0,34,42
6,16410,3,KR4MFM,2.91,3,   boost,6.03,89698,1016.21,113.39,47.19,52.7,4.19,4.2,4.11,24.33,0.35,0.88,34.07,3.74,-2.93,0.72,-0.07,0.19,17.56,4.19,0,0,0,0,1,1,15,31.0423706,-103.5226904,996,2026,6,20,23,46,39,8,83,108,85,0.9,0.5,0.7,39,41,35,0,0,0,0,13,0,34,0,37,0,0,0,0,0,0,0,0,0,0,37,0,34,37,0,34,0,0,34,42
6,16410,3,KR4MFM,2.92,3,   boost,15.59,89698,1016.21,113.39,47.29,52.7,4.19,4.2,4.11,31.75,0.66,1.1,33.04,3.31,-2.13,0.72,-0.07,0.19,17.58,4.19,0,0,0,0,1,1,15,31.0423706,-103.5226904,996,2026,6,20,23,46,39,8,83,108,85,0.9,0.5,0.7,39,41,35,0,0,0,0,13,0,34,0,37,0,0,0,0,0,0,0,0,0,0,37,0,34,37,0,34,0,0,34,42
6,16410,3,KR4MFM,2.93,3,   boost,11.57,89728,1013.45,110.63,47.38,52.7,4.19,4.2,4.11,21.91,0.8,1.36,31.51,3.13,-1.1,0.72,-0.07,0.19,17.6,4.19,0,0,0,0,1,1,15,31.0423706,-103.5226904,996,2026,6,20,23,46,39,8,83,108,85,0.9,0.5,0.7,39,41,35,0,0,0,0,13,0,34,0,37,0,0,0,0,0,0,0,0,0,0,37,0,34,37,0,34,0,0,34,42
6,16410,3,KR4MFM,2.94,3,   boost,2.01,89728,1013.45,110.63,47.47,52.7,4.19,4.2,4.11,21.65,0.82,0.47,30.53,3.67,-2.07,0.72,-0.07,0.19,17.62,4.19,0,0,0,0,1,1,15,31.0423706,-103.5226904,996,2026,6,20,23,46,39,8,83,108,85,0.9,0.5,0.7,39,41,35,0,0,0,0,13,0,34,0,37,0,0,0,0,0,0,0,0,0,0,37,0,34,37,0,34,0,0,34,42
6,16410,3,KR4MFM,2.95,3,   boost,14.58,89684,1017.5,114.67,47.56,52.7,4.19,4.2,4.11,30.76,0.75,0.96,29.37,2.88,-1.89,0.72,-0.06,0.19,17.64,4.19,0,0,0,0,1,1,15,31.0423706,-103.5226904,996,2026,6,20,23,46,39,8,83,108,85,0.9,0.5,0.7,39,41,35,0,0,0,0,13,0,34,0,37,0,0,0,0,0,0,0,0,0,0,37,0,34,37,0,34,0,0,34,42
6,16410,3,KR4MFM,2.95,3,   boost,14.58,89684,1017.5,114.67,47.56,52.7,4.19,4.2,4.11,30.76,0.75,0.96,29.37,2.88,-1.89,0.72,-0.06,0.19,17.64,4.19,0,0,0,0,1,1,15,31.0423706,-103.5226904,996,2026,6,20,23,46,39,8,83,108,85,0.9,0.5,0.7,39,41,35,0,0,0,0,13,0,34,0,37,0,0,0,0,0,0,0,0,0,0,37,0,34,37,0,34,0,0,34,42
6,16410,3,KR4MFM,2.95,3,   boost,14.58,89684,1017.5,114.67,47.56,52.7,4.19,4.2,4.11,30.76,0.75,0.96,29.37,2.88,-1.89,0.72,-0.06,0.19,17.64,4.19,0,0,0,0,1,1,15,31.0423706,-103.5226904,996,2026,6,20,23,46,39,8,83,108,85,0.9,0.5,0.7,39,41,35,0,0,0,0,13,0,34,0,37,0,0,0,0,0,0,0,0,0,0,37,0,34,37,0,34,0,0,34,42
6,16410,3,KR4MFM,2.96,3,   boost,7.04,89684,1017.5,114.67,47.64,52.7,4.19,4.2,4.11,25.15,0.47,0.94,29.44,2.7,-0.73,0.72,-0.06,0.19,17.65,4.19,0,0,0,0,1,1,15,31.0423259,-103.5225663,1058,2026,6,20,23,46,40,21,146,111,82,0.9,0.5,0.8,39,41,35,0,0,0,0,10,0,27,0,37,0,0,0,0,0,0,0,0,0,0,37,0,33,36,0,33,0,0,28,45
6,16410,3,KR4MFM,2.97,3,   boost,7.54,89685,1017.4,114.58,47.73,52.7,4.19,4.2,4.11,17.8,0.38,0.73,29.07,1.78,-0.06,0.72,-0.06,0.19,17.66,4.19,0,0,0,0,1,1,15,31.0423259,-103.5225663,1058,2026,6,20,23,46,40,21,146,111,82,0.9,0.5,0.8,39,41,35,0,0,0,0,10,0,27,0,37,0,0,0,0,0,0,0,0,0,0,37,0,33,36,0,33,0,0,28,45
6,16410,3,KR4MFM,2.98,3,   boost,16.09,89685,1017.4,114.58,47.81,52.7,4.19,4.2,4.11,28.62,0.68,1.5,28.7,2.09,-0.91,0.72,-0.06,0.19,17.67,4.19,0,0,0,0,1,1,15,31.0423259,-103.5225663,1058,2026,6,20,23,46,40,21,146,111,82,0.9,0.5,0.8,39,41,35,0,0,0,0,10,0,27,0,37,0,0,0,0,0,0,0,0,0,0,37,0,33,36,0,33,0,0,28,45
6,16410,3,KR4MFM,2.99,3,   boost,8.05,89661,1019.61,116.79,47.9,52.7,4.19,4.2,4.11,27.1,0.73,0.87,27.79,2.15,0.13,0.72,-0.06,0.19,17.67,4.19,0,0,0,0,1,1,15,31.0423259,-103.5225663,1058,2026,6,20,23,46,40,21,146,111,82,0.9,0.5,0.8,39,41,35,0,0,0,0,10,0,27,0,37,0,0,0,0,0,0,0,0,0,0,37,0,33,36,0,33,0,0,28,45
6,16410,3,KR4MFM,3,3,   boost,0.5,89661,1019.61,116.79,47.99,52.7,4.19,4.2,4.11,17.13,0.5,0.31,27.3,2.76,0.13,0.72,-0.06,0.19,17.67,4.19,0,0,0,0,1,1,15,31.0423259,-103.5225663,1058,2026,6,20,23,46,40,21,146,111,82,0.9,0.5,0.8,39,41,35,0,0,0,0,10,0,27,0,37,0,0,0,0,0,0,0,0,0,0,37,0,33,36,0,33,0,0,28,45
6,16410,3,KR4MFM,3.01,3,   boost,18.61,89639,1021.63,118.81,48.09,52.7,4.19,4.2,4.11,27.26,0.8,1.17,26.75,1.05,-0.61,0.72,-0.06,0.19,17.68,4.19,0,0,0,0,1,1,15,31.0423259,-103.5225663,1058,2026,6,20,23,46,40,21,146,111,82,0.9,0.5,0.8,39,41,35,0,0,0,0,10,0,27,0,37,0,0,0,0,0,0,0,0,0,0,37,0,33,36,0,33,0,0,28,45
6,16410,3,KR4MFM,3.02,3,   boost,10.56,89639,1021.63,118.81,48.2,52.7,4.19,4.2,4.11,30.81,0.68,0.43,25.96,1.11,-0.24,0.72,-0.06,0.19,17.68,4.19,0,0,0,0,1,1,15,31.0423259,-103.5225663,1058,2026,6,20,23,46,40,21,146,111,82,0.9,0.5,0.8,39,41,35,0,0,0,0,10,0,27,0,37,0,0,0,0,0,0,0,0,0,0,37,0,33,36,0,33,0,0,28,45
6,16410,3,KR4MFM,3.03,3,   boost,12.57,89648,1020.8,117.98,48.33,52.7,4.19,4.2,4.11,15.83,0.38,0.78,25.16,0.38,1.77,0.72,-0.05,0.19,17.67,4.19,0,0,0,0,1,1,15,31.0423259,-103.5225663,1058,2026,6,20,23,46,40,21,146,111,82,0.9,0.5,0.8,39,41,35,0,0,0,0,10,0,27,0,37,0,0,0,0,0,0,0,0,0,0,37,0,33,36,0,33,0,0,28,45
6,16410,3,KR4MFM,3.04,3,   boost,17.1,89648,1020.8,117.98,48.47,52.7,4.19,4.2,4.11,15.43,0.51,0.09,24.86,0.56,0.98,0.72,-0.06,0.19,17.66,4.19,0,0,0,0,1,1,15,31.0423259,-103.5225663,1058,2026,6,20,23,46,40,21,146,111,82,0.9,0.5,0.8,39,41,35,0,0,0,0,10,0,27,0,37,0,0,0,0,0,0,0,0,0,0,37,0,33,36,0,33,0,0,28,45
6,16410,3,KR4MFM,3.05,3,   boost,28.16,89602,1025.03,122.21,48.61,52.7,4.19,4.2,4.11,27.53,0.54,0.08,25.1,0.87,0.13,0.72,-0.05,0.19,17.66,4.19,0,0,0,0,1,1,15,31.0423259,-103.5225663,1058,2026,6,20,23,46,40,21,146,111,82,0.9,0.5,0.8,39,41,35,0,0,0,0,10,0,27,0,37,0,0,0,0,0,0,0,0,0,0,37,0,33,36,0,33,0,0,28,45
6,16410,3,KR4MFM,3.06,3,   boost,16.09,89602,1025.03,122.21,48.75,52.7,4.19,4.2,4.11,15.2,0.3,-0.29,24.74,1.78,1.16,0.72,-0.05,0.19,17.65,4.19,0,0,0,0,1,1,15,31.0423259,-103.5225663,1058,2026,6,20,23,46,40,21,146,111,82,0.9,0.5,0.8,39,41,35,0,0,0,0,10,0,27,0,37,0,0,0,0,0,0,0,0,0,0,37,0,33,36,0,33,0,0,28,45
6,16410,3,KR4MFM,3.07,3,   boost,0,89610,1024.3,121.47,48.86,52.7,4.19,4.2,4.11,11.06,0.21,-0.7,24.55,1.17,2.2,0.72,-0.05,0.19,17.63,4.19,0,0,0,0,1,1,15,31.0423259,-103.5225663,1058,2026,6,20,23,46,40,21,146,111,82,0.9,0.5,0.8,39,41,35,0,0,0,0,10,0,27,0,37,0,0,0,0,0,0,0,0,0,0,37,0,33,36,0,33,0,0,28,45
6,16410,3,KR4MFM,3.08,3,   boost,3.02,89610,1024.3,121.47,48.96,52.7,4.19,4.2,4.11,28.5,0.46,0.83,23.88,-0.35,0.67,0.72,-0.05,0.19,17.62,4.19,0,0,0,0,1,1,15,31.0423259,-103.5225663,1058,2026,6,20,23,46,40,21,146,111,82,0.9,0.5,0.8,39,41,35,0,0,0,0,10,0,27,0,37,0,0,0,0,0,0,0,0,0,0,37,0,33,36,0,33,0,0,28,45
6,16410,3,KR4MFM,3.09,3,   boost,20.62,89588,1026.32,123.5,49.05,52.7,4.19,4.2,4.11,26.57,0.37,0.91,22.42,-1.57,1.47,0.72,-0.05,0.19,17.61,4.19,0,0,0,0,1,1,15,31.0423259,-103.5225663,1058,2026,6,20,23,46,40,21,146,111,82,0.9,0.5,0.8,39,41,35,0,0,0,0,10,0,27,0,37,0,0,0,0,0,0,0,0,0,0,37,0,33,36,0,33,0,0,28,45
6,16410,3,KR4MFM,3.1,3,   boost,10.06,89588,1026.32,123.5,49.14,52.7,4.19,4.2,4.11,17.73,0.4,1.08,21.38,-1.27,2.38,0.72,-0.05,0.18,17.58,4.19,0,0,0,0,1,1,15,31.0423259,-103.5225663,1058,2026,6,20,23,46,40,21,146,111,82,0.9,0.5,0.8,39,41,35,0,0,0,0,10,0,27,0,37,0,0,0,0,0,0,0,0,0,0,37,0,33,36,0,33,0,0,28,45
